<?xml version="1.0" encoding="UTF-8"?>

<Questionnaire xmlns="http://hl7.org/fhir">
  <id value="qs1"/>
  <contained>
    <ValueSet>
      <id value="vs2"/>
      <identifier value="urn:uuid:00f65e66-f817-4083-a139-770da340da7b"/>
      <name value="Type options for ClinicalAssessment.problem"/>
      <description value="Type options for ClinicalAssessment.problem"/>
      <status value="active"/>
      <expansion>
        <timestamp value="2014-12-30T10:58:25+00:00"/>
        <contains>
          <system value="http://hl7.org/fhir/resource-types"/>
          <code value="Condition"/>
          <display value="Condition"/>
        </contains>
        <contains>
          <system value="http://hl7.org/fhir/resource-types"/>
          <code value="AllergyIntolerance"/>
          <display value="AllergyIntolerance"/>
        </contains>
      </expansion>
    </ValueSet>
  </contained>
  <contained>
    <ValueSet>
      <id value="vs3"/>
      <identifier value="urn:uuid:56b94765-1fb8-48ee-8f1c-58bf1f6244f2"/>
      <name value="Type options for ClinicalAssessment.investigations.item"/>
      <description value="Type options for ClinicalAssessment.investigations.item"/>
      <status value="active"/>
      <expansion>
        <timestamp value="2014-12-30T10:58:25+00:00"/>
        <contains>
          <system value="http://hl7.org/fhir/resource-types"/>
          <code value="Observation"/>
          <display value="Observation"/>
        </contains>
        <contains>
          <system value="http://hl7.org/fhir/resource-types"/>
          <code value="QuestionnaireAnswers"/>
          <display value="QuestionnaireAnswers"/>
        </contains>
        <contains>
          <system value="http://hl7.org/fhir/resource-types"/>
          <code value="FamilyHistory"/>
          <display value="FamilyHistory"/>
        </contains>
        <contains>
          <system value="http://hl7.org/fhir/resource-types"/>
          <code value="DiagnosticReport"/>
          <display value="DiagnosticReport"/>
        </contains>
      </expansion>
    </ValueSet>
  </contained>
  <contained>
    <ValueSet>
      <id value="vs4"/>
      <identifier value="urn:uuid:55f1cf7b-0026-40b5-89f6-15ee037241db"/>
      <name value="Type options for ClinicalAssessment.action"/>
      <description value="Type options for ClinicalAssessment.action"/>
      <status value="active"/>
      <expansion>
        <timestamp value="2014-12-30T10:58:25+00:00"/>
        <contains>
          <system value="http://hl7.org/fhir/resource-types"/>
          <code value="ReferralRequest"/>
          <display value="ReferralRequest"/>
        </contains>
        <contains>
          <system value="http://hl7.org/fhir/resource-types"/>
          <code value="ProcedureRequest"/>
          <display value="ProcedureRequest"/>
        </contains>
        <contains>
          <system value="http://hl7.org/fhir/resource-types"/>
          <code value="Procedure"/>
          <display value="Procedure"/>
        </contains>
        <contains>
          <system value="http://hl7.org/fhir/resource-types"/>
          <code value="MedicationPrescription"/>
          <display value="MedicationPrescription"/>
        </contains>
        <contains>
          <system value="http://hl7.org/fhir/resource-types"/>
          <code value="DiagnosticOrder"/>
          <display value="DiagnosticOrder"/>
        </contains>
        <contains>
          <system value="http://hl7.org/fhir/resource-types"/>
          <code value="NutritionOrder"/>
          <display value="NutritionOrder"/>
        </contains>
        <contains>
          <system value="http://hl7.org/fhir/resource-types"/>
          <code value="Supply"/>
          <display value="Supply"/>
        </contains>
        <contains>
          <system value="http://hl7.org/fhir/resource-types"/>
          <code value="Appointment"/>
          <display value="Appointment"/>
        </contains>
      </expansion>
    </ValueSet>
  </contained>
  <identifier>
    <system value="urn:ietf:rfc:3986"/>
  </identifier>
  <status value="draft"/>
  <date value="2014-12-30T10:55:31"/>
  <publisher value="HL7 FHIR Project"/>
  <group>
    <extension url="http://hl7.org/fhir/Profile/questionnaire-extensions#flyover">
      <valueString value="A record of a clinical assessment performed to determine what problem(s) may affect the patient and before planning the treatments or management strategies that are best to manage a patient&#39;s condition. Assessments are often 1:1 with a clinical consultation / encounter,  but this varies greatly depending on the clinical workflow."/>
    </extension>
    <linkId value="ClinicalAssessment"/>
    <title value="A clinical assessment performed when planning treatments and management strategies for a patient"/>
    <required value="true"/>
    <group>
      <extension url="http://hl7.org/fhir/Profile/questionnaire-extensions#flyover">
        <valueString value="The logical id of the resource, as used in the url for the resoure. Once assigned, this value never changes. The only time that a resource does not have an id is when it is being submitted to the server using a create operation. Bundles always have an id, though it is usually a generated UUID."/>
      </extension>
      <extension url="http://www.healthintersections.com.au/fhir/Profile/metadata#type">
        <valueString value="string"/>
      </extension>
      <linkId value="ClinicalAssessment.id"/>
      <repeats value="true"/>
      <question>
        <linkId value="ClinicalAssessment.id.value"/>
        <text value="Logical id of this artefact"/>
        <type value="string"/>
      </question>
    </group>
    <group>
      <extension url="http://hl7.org/fhir/Profile/questionnaire-extensions#flyover">
        <valueString value="The metadata about the resource. This is content that is maintained by the infrastructure. Changes to the content may not always be associated with version changes to the resource."/>
      </extension>
      <linkId value="ClinicalAssessment.meta"/>
      <title value="Metadata about the resource"/>
      <group>
        <extension url="http://hl7.org/fhir/Profile/questionnaire-extensions#flyover">
          <valueString value="unique id for the element within a resource (for internal references)."/>
        </extension>
        <extension url="http://www.healthintersections.com.au/fhir/Profile/metadata#type">
          <valueString value="string"/>
        </extension>
        <linkId value="ClinicalAssessment.meta.id"/>
        <repeats value="true"/>
        <question>
          <linkId value="ClinicalAssessment.meta.id.value"/>
          <text value="xml:id (or equivalent in JSON)"/>
          <type value="string"/>
        </question>
      </group>
      <group>
        <extension url="http://hl7.org/fhir/Profile/questionnaire-extensions#flyover">
          <valueString value="The version specific identifier, as it appears in the version portion of the url. This values changes when the resource is created, updated, or deleted. The server assigns this value, and ignores what the client specifies, except in the case that the server is imposing version integrity on updates/deletes."/>
        </extension>
        <extension url="http://www.healthintersections.com.au/fhir/Profile/metadata#type">
          <valueString value="string"/>
        </extension>
        <linkId value="ClinicalAssessment.meta.versionId"/>
        <repeats value="true"/>
        <question>
          <linkId value="ClinicalAssessment.meta.versionId.value"/>
          <text value="Version specific identifier"/>
          <type value="string"/>
        </question>
      </group>
      <group>
        <extension url="http://hl7.org/fhir/Profile/questionnaire-extensions#flyover">
          <valueString value="When the resource last changed - e.g. when the version changed. This value is always populated except when the resource is first being created. The server / resource manager sets this value; what a client provides is irrelevant."/>
        </extension>
        <extension url="http://www.healthintersections.com.au/fhir/Profile/metadata#type">
          <valueString value="instant"/>
        </extension>
        <linkId value="ClinicalAssessment.meta.lastUpdated"/>
        <repeats value="true"/>
        <question>
          <linkId value="ClinicalAssessment.meta.lastUpdated.value"/>
          <text value="When the resource version last changed"/>
          <type value="instant"/>
        </question>
      </group>
      <group>
        <extension url="http://hl7.org/fhir/Profile/questionnaire-extensions#flyover">
          <valueString value="A list of profiles that this resource claims to conform to. The URL is a reference to Profile.url. It is up to the server and/or other infrastruture of policy to determine whether/how these claims are verified and/or updated over tiem."/>
        </extension>
        <extension url="http://www.healthintersections.com.au/fhir/Profile/metadata#type">
          <valueString value="uri"/>
        </extension>
        <linkId value="ClinicalAssessment.meta.profile"/>
        <repeats value="true"/>
        <question>
          <linkId value="ClinicalAssessment.meta.profile.value"/>
          <text value="Profiles this resource claims to conform to"/>
          <type value="string"/>
        </question>
      </group>
      <group>
        <extension url="http://hl7.org/fhir/Profile/questionnaire-extensions#flyover">
          <valueString value="Security labels applied to this resource. These tags connect specific resources to the overall security policy and infrastructure. The security labels can be updated without changing the stated version of the resource."/>
        </extension>
        <extension url="http://www.healthintersections.com.au/fhir/Profile/metadata#type">
          <valueString value="Coding"/>
        </extension>
        <linkId value="ClinicalAssessment.meta.security"/>
        <repeats value="true"/>
        <question>
          <linkId value="ClinicalAssessment.meta.security.value"/>
          <text value="Security Labels applied to this resource"/>
          <type value="open-choice"/>
        </question>
      </group>
      <group>
        <extension url="http://hl7.org/fhir/Profile/questionnaire-extensions#flyover">
          <valueString value="Tags applied to this resource. Tags are intended to to be used to identify and relate resources to process and workflow, and applications are not required to consider the tags when interpreting the meaning of a resource. The tags can be updated without changing the stated version of the resource."/>
        </extension>
        <extension url="http://www.healthintersections.com.au/fhir/Profile/metadata#type">
          <valueString value="Coding"/>
        </extension>
        <linkId value="ClinicalAssessment.meta.tag"/>
        <repeats value="true"/>
        <question>
          <linkId value="ClinicalAssessment.meta.tag.value"/>
          <text value="Tags applied"/>
          <type value="open-choice"/>
        </question>
      </group>
    </group>
    <group>
      <extension url="http://hl7.org/fhir/Profile/questionnaire-extensions#flyover">
        <valueString value="A reference to a set of rules that were followed when the resource was constructed, and which must be understood when processing the content. Asserting this rule set restricts the content to be only understood by a limited set of trading partners. This inherently limits the usefulness of the data in the long term. However the existing health eco-system is highly fractured, and not yet ready to define, collect, and exchange data in a generally computable sense. Wherever possible, implementers and/or specification writers should avoid using this element as much as possible."/>
      </extension>
      <extension url="http://www.healthintersections.com.au/fhir/Profile/metadata#type">
        <valueString value="uri"/>
      </extension>
      <linkId value="ClinicalAssessment.implicitRules"/>
      <repeats value="true"/>
      <question>
        <linkId value="ClinicalAssessment.implicitRules.value"/>
        <text value="A set of rules under which this content was created"/>
        <type value="string"/>
      </question>
    </group>
    <group>
      <extension url="http://hl7.org/fhir/Profile/questionnaire-extensions#flyover">
        <valueString value="The base language in which the resource is written. Language is provided to support indexing and accessibility (typically, services such as text to speech use the language tag). The html language tag in the narrative applies  to the narrative. The language tag on the resource may be used to specify the language of other presentations generated from the data in the resource

Not all the content has to be in the base language. The Resource.language should not be assumed to apply to the narrative automatically. If a language is specified, it should it also be specified on the div element in the html (see rules in HTML5 for information about the relationship between xml:lang and the html lang attribute)."/>
      </extension>
      <extension url="http://www.healthintersections.com.au/fhir/Profile/metadata#type">
        <valueString value="code"/>
      </extension>
      <linkId value="ClinicalAssessment.language"/>
      <repeats value="true"/>
      <question>
        <linkId value="ClinicalAssessment.language.value"/>
        <text value="language"/>
        <type value="choice"/>
      </question>
    </group>
    <group>
      <extension url="http://hl7.org/fhir/Profile/questionnaire-extensions#flyover">
        <valueString value="A human-readable narrative that contains a summary of the resource, and may be used to represent the content of the resource to a human. The narrative need not encode all the structured data, but is required to contain sufficient detail to make it &quot;clinically safe&quot; for a human to just read the narrative. Resource definitions may define what content should be represented in the narrative to ensure clinical safety. Contained resources do not have narrative. Resources that are not contained SHOULD have a narrative."/>
      </extension>
      <linkId value="ClinicalAssessment.text"/>
      <text value="Text summary of the resource, for human interpretation"/>
      <repeats value="true"/>
    </group>
    <group>
      <extension url="http://hl7.org/fhir/Profile/questionnaire-extensions#flyover">
        <valueString value="These resources do not have an independent existence apart from the resource that contains them - they cannot be identified independently, and nor can they have their own independent transaction scope. This should never be done when the content can be identified properly, as once identification is lost, it is extremely difficult (and context dependent) to restore it again."/>
      </extension>
      <linkId value="ClinicalAssessment.contained"/>
      <text value="Contained, inline Resources"/>
      <repeats value="true"/>
    </group>
    <group>
      <extension url="http://hl7.org/fhir/Profile/questionnaire-extensions#flyover">
        <valueString value="The patient being asssesed."/>
      </extension>
      <extension url="http://www.healthintersections.com.au/fhir/Profile/metadata#type">
        <valueString value="Reference"/>
      </extension>
      <linkId value="ClinicalAssessment.patient"/>
      <required value="true"/>
      <repeats value="true"/>
      <question>
        <extension url="http://www.healthintersections.com.au/fhir/Profile/metadata#reference">
          <valueString value="/Patient?subject=$subj&amp;patient=$subj&amp;encounter=$encounter"/>
        </extension>
        <linkId value="ClinicalAssessment.patient.value"/>
        <text value="The patient being asssesed"/>
        <type value="reference"/>
      </question>
    </group>
    <group>
      <extension url="http://hl7.org/fhir/Profile/questionnaire-extensions#flyover">
        <valueString value="The clinicial performing the assessment."/>
      </extension>
      <extension url="http://www.healthintersections.com.au/fhir/Profile/metadata#type">
        <valueString value="Reference"/>
      </extension>
      <linkId value="ClinicalAssessment.assessor"/>
      <required value="true"/>
      <repeats value="true"/>
      <question>
        <extension url="http://www.healthintersections.com.au/fhir/Profile/metadata#reference">
          <valueString value="/Practitioner?subject=$subj&amp;patient=$subj&amp;encounter=$encounter"/>
        </extension>
        <linkId value="ClinicalAssessment.assessor.value"/>
        <text value="The clinicial performing the assessment"/>
        <type value="reference"/>
      </question>
    </group>
    <group>
      <extension url="http://hl7.org/fhir/Profile/questionnaire-extensions#flyover">
        <valueString value="The point in time at which the assessment was concluded (not when it was recorded). This SHOULD be accurate to at least the minute, though some assessments only have a known date."/>
      </extension>
      <extension url="http://www.healthintersections.com.au/fhir/Profile/metadata#type">
        <valueString value="datetime"/>
      </extension>
      <linkId value="ClinicalAssessment.date"/>
      <required value="true"/>
      <repeats value="true"/>
      <question>
        <linkId value="ClinicalAssessment.date.value"/>
        <text value="When the assessment occurred"/>
        <type value="dateTime"/>
      </question>
    </group>
    <group>
      <extension url="http://hl7.org/fhir/Profile/questionnaire-extensions#flyover">
        <valueString value="A summary of the context and/or cause of the assessment - why / where was it peformed, and what patient events/sstatus prompted it."/>
      </extension>
      <extension url="http://www.healthintersections.com.au/fhir/Profile/metadata#type">
        <valueString value="string"/>
      </extension>
      <linkId value="ClinicalAssessment.description"/>
      <repeats value="true"/>
      <question>
        <linkId value="ClinicalAssessment.description.value"/>
        <text value="Why/how the assessment was performed"/>
        <type value="string"/>
      </question>
    </group>
    <group>
      <extension url="http://hl7.org/fhir/Profile/questionnaire-extensions#flyover">
        <valueString value="A reference to the last assesment that was conducted bon this patient. Assessments are often/usually ongoing in nature; a care provider (practitioner or team) will make new assessments on an ongoing basis as new data arises or the patient&#39;s conditions changes. It is always likely that multiple previous assessments exist for a patient. The point of quoting a previous assessment is that this assessment is relative to it (see resolved)."/>
      </extension>
      <extension url="http://www.healthintersections.com.au/fhir/Profile/metadata#type">
        <valueString value="Reference"/>
      </extension>
      <linkId value="ClinicalAssessment.previous"/>
      <repeats value="true"/>
      <question>
        <extension url="http://www.healthintersections.com.au/fhir/Profile/metadata#reference">
          <valueString value="/ClinicalAssessment?subject=$subj&amp;patient=$subj&amp;encounter=$encounter"/>
        </extension>
        <linkId value="ClinicalAssessment.previous.value"/>
        <text value="Reference to last assessment"/>
        <type value="reference"/>
      </question>
    </group>
    <group>
      <extension url="http://hl7.org/fhir/Profile/questionnaire-extensions#flyover">
        <valueString value="This a list of the general problems/conditions for a patient. e.g. The patient is a pregnant, and cardiac congestive failure, ‎Adenocarcinoma, and is allergic to penicillin."/>
      </extension>
      <linkId value="ClinicalAssessment.problem"/>
      <text value="General assessment of patient state"/>
      <repeats value="true"/>
      <question>
        <linkId value="ClinicalAssessment.problem._type"/>
        <text value="type"/>
        <type value="choice"/>
        <options>
          <reference value="#vs2"/>
        </options>
        <group>
          <extension url="http://www.healthintersections.com.au/fhir/Profile/metadata#type">
            <valueString value="Reference"/>
          </extension>
          <linkId value="ClinicalAssessment.problem._Condition"/>
          <question>
            <extension url="http://www.healthintersections.com.au/fhir/Profile/metadata#reference">
              <valueString value="/Condition?subject=$subj&amp;patient=$subj&amp;encounter=$encounter"/>
            </extension>
            <linkId value="ClinicalAssessment.problem._Condition.value"/>
            <text value="Condition"/>
            <type value="reference"/>
          </question>
        </group>
        <group>
          <extension url="http://www.healthintersections.com.au/fhir/Profile/metadata#type">
            <valueString value="Reference"/>
          </extension>
          <linkId value="ClinicalAssessment.problem._AllergyIntolerance"/>
          <question>
            <extension url="http://www.healthintersections.com.au/fhir/Profile/metadata#reference">
              <valueString value="/AllergyIntolerance?subject=$subj&amp;patient=$subj&amp;encounter=$encounter"/>
            </extension>
            <linkId value="ClinicalAssessment.problem._AllergyIntolerance.value"/>
            <text value="AllergyIntolerance"/>
            <type value="reference"/>
          </question>
        </group>
      </question>
    </group>
    <group>
      <extension url="http://hl7.org/fhir/Profile/questionnaire-extensions#flyover">
        <valueString value="A reference to a specific care plan that prompted this assessment. The care plan provides further context for the assessment."/>
      </extension>
      <extension url="http://www.healthintersections.com.au/fhir/Profile/metadata#type">
        <valueString value="Reference"/>
      </extension>
      <linkId value="ClinicalAssessment.careplan"/>
      <repeats value="true"/>
      <question>
        <extension url="http://www.healthintersections.com.au/fhir/Profile/metadata#reference">
          <valueString value="/CarePlan?subject=$subj&amp;patient=$subj&amp;encounter=$encounter"/>
        </extension>
        <linkId value="ClinicalAssessment.careplan.value"/>
        <text value="A specific careplan that prompted this assessment"/>
        <type value="reference"/>
      </question>
    </group>
    <group>
      <extension url="http://hl7.org/fhir/Profile/questionnaire-extensions#flyover">
        <valueString value="A reference to a specific care plan that prompted this assessment. The referral request may provide further context for the assessment."/>
      </extension>
      <extension url="http://www.healthintersections.com.au/fhir/Profile/metadata#type">
        <valueString value="Reference"/>
      </extension>
      <linkId value="ClinicalAssessment.referral"/>
      <repeats value="true"/>
      <question>
        <extension url="http://www.healthintersections.com.au/fhir/Profile/metadata#reference">
          <valueString value="/ReferralRequest?subject=$subj&amp;patient=$subj&amp;encounter=$encounter"/>
        </extension>
        <linkId value="ClinicalAssessment.referral.value"/>
        <text value="A specific referral that lead to this assessment"/>
        <type value="reference"/>
      </question>
    </group>
    <group>
      <extension url="http://hl7.org/fhir/Profile/questionnaire-extensions#flyover">
        <valueString value="One or more sets of investigations (signs, symptions, etc). The actual grouping of investigations vary greatly depending on the type and context of the assessment. These investigations may include data generated during the assessment process, or data previously generated and recorded that is pertinent to the outcomes."/>
      </extension>
      <linkId value="ClinicalAssessment.investigations"/>
      <title value="One or more sets of investigations (signs, symptions, etc)"/>
      <repeats value="true"/>
      <group>
        <extension url="http://hl7.org/fhir/Profile/questionnaire-extensions#flyover">
          <valueString value="unique id for the element within a resource (for internal references)."/>
        </extension>
        <extension url="http://www.healthintersections.com.au/fhir/Profile/metadata#type">
          <valueString value="string"/>
        </extension>
        <linkId value="ClinicalAssessment.investigations.id"/>
        <repeats value="true"/>
        <question>
          <linkId value="ClinicalAssessment.investigations.id.value"/>
          <text value="xml:id (or equivalent in JSON)"/>
          <type value="string"/>
        </question>
      </group>
      <group>
        <extension url="http://hl7.org/fhir/Profile/questionnaire-extensions#flyover">
          <valueString value="A name/code for the group (&quot;set&quot;) of investigations. Typically, this will be something like &quot;signs&quot;, &quot;symptoms&quot;, &quot;clinical&quot;, &quot;diagnostic&quot;, but the list is not constrained, and others such groups such as (exposure|family|travel|nutitirional) history may be used."/>
        </extension>
        <extension url="http://www.healthintersections.com.au/fhir/Profile/metadata#type">
          <valueString value="CodeableConcept"/>
        </extension>
        <linkId value="ClinicalAssessment.investigations.code"/>
        <text value="A name/code for the set"/>
        <required value="true"/>
        <repeats value="true"/>
        <question>
          <linkId value="ClinicalAssessment.investigations.code.coding"/>
          <text value="code:"/>
          <type value="open-choice"/>
        </question>
        <question>
          <linkId value="ClinicalAssessment.investigations.code.text"/>
          <text value="text:"/>
          <type value="string"/>
        </question>
      </group>
      <group>
        <extension url="http://hl7.org/fhir/Profile/questionnaire-extensions#flyover">
          <valueString value="A record of a specific investigation that was undertaken. Most investigations are observations of one kind of or another but some other specific types of data collection resources can also be used."/>
        </extension>
        <linkId value="ClinicalAssessment.investigations.item"/>
        <text value="Record of a specific investigation"/>
        <repeats value="true"/>
        <question>
          <linkId value="ClinicalAssessment.investigations.item._type"/>
          <text value="type"/>
          <type value="choice"/>
          <options>
            <reference value="#vs3"/>
          </options>
          <group>
            <extension url="http://www.healthintersections.com.au/fhir/Profile/metadata#type">
              <valueString value="Reference"/>
            </extension>
            <linkId value="ClinicalAssessment.investigations.item._Observation"/>
            <question>
              <extension url="http://www.healthintersections.com.au/fhir/Profile/metadata#reference">
                <valueString value="/Observation?subject=$subj&amp;patient=$subj&amp;encounter=$encounter"/>
              </extension>
              <linkId value="ClinicalAssessment.investigations.item._Observation.value"/>
              <text value="Observation"/>
              <type value="reference"/>
            </question>
          </group>
          <group>
            <extension url="http://www.healthintersections.com.au/fhir/Profile/metadata#type">
              <valueString value="Reference"/>
            </extension>
            <linkId value="ClinicalAssessment.investigations.item._QuestionnaireAnswers"/>
            <question>
              <extension url="http://www.healthintersections.com.au/fhir/Profile/metadata#reference">
                <valueString value="/QuestionnaireAnswers?subject=$subj&amp;patient=$subj&amp;encounter=$encounter"/>
              </extension>
              <linkId value="ClinicalAssessment.investigations.item._QuestionnaireAnswers.value"/>
              <text value="QuestionnaireAnswers"/>
              <type value="reference"/>
            </question>
          </group>
          <group>
            <extension url="http://www.healthintersections.com.au/fhir/Profile/metadata#type">
              <valueString value="Reference"/>
            </extension>
            <linkId value="ClinicalAssessment.investigations.item._FamilyHistory"/>
            <question>
              <extension url="http://www.healthintersections.com.au/fhir/Profile/metadata#reference">
                <valueString value="/FamilyHistory?subject=$subj&amp;patient=$subj&amp;encounter=$encounter"/>
              </extension>
              <linkId value="ClinicalAssessment.investigations.item._FamilyHistory.value"/>
              <text value="FamilyHistory"/>
              <type value="reference"/>
            </question>
          </group>
          <group>
            <extension url="http://www.healthintersections.com.au/fhir/Profile/metadata#type">
              <valueString value="Reference"/>
            </extension>
            <linkId value="ClinicalAssessment.investigations.item._DiagnosticReport"/>
            <question>
              <extension url="http://www.healthintersections.com.au/fhir/Profile/metadata#reference">
                <valueString value="/DiagnosticReport?subject=$subj&amp;patient=$subj&amp;encounter=$encounter"/>
              </extension>
              <linkId value="ClinicalAssessment.investigations.item._DiagnosticReport.value"/>
              <text value="DiagnosticReport"/>
              <type value="reference"/>
            </question>
          </group>
        </question>
      </group>
    </group>
    <group>
      <extension url="http://hl7.org/fhir/Profile/questionnaire-extensions#flyover">
        <valueString value="Reference to a specific published clinical protocol that was followed during this assessment, and/or that provides evidence in support of the diagnosis."/>
      </extension>
      <extension url="http://www.healthintersections.com.au/fhir/Profile/metadata#type">
        <valueString value="uri"/>
      </extension>
      <linkId value="ClinicalAssessment.protocol"/>
      <repeats value="true"/>
      <question>
        <linkId value="ClinicalAssessment.protocol.value"/>
        <text value="Clinical Protocol followed"/>
        <type value="string"/>
      </question>
    </group>
    <group>
      <extension url="http://hl7.org/fhir/Profile/questionnaire-extensions#flyover">
        <valueString value="A text summary of the investigations and the diagnosis."/>
      </extension>
      <extension url="http://www.healthintersections.com.au/fhir/Profile/metadata#type">
        <valueString value="string"/>
      </extension>
      <linkId value="ClinicalAssessment.summary"/>
      <repeats value="true"/>
      <question>
        <linkId value="ClinicalAssessment.summary.value"/>
        <text value="Summary of the assessment"/>
        <type value="string"/>
      </question>
    </group>
    <group>
      <extension url="http://hl7.org/fhir/Profile/questionnaire-extensions#flyover">
        <valueString value="An specific diagnosis that was considered likely or relevant to ongoing treatment."/>
      </extension>
      <linkId value="ClinicalAssessment.diagnosis"/>
      <title value="Possible or likely diagnosis"/>
      <repeats value="true"/>
      <group>
        <extension url="http://hl7.org/fhir/Profile/questionnaire-extensions#flyover">
          <valueString value="unique id for the element within a resource (for internal references)."/>
        </extension>
        <extension url="http://www.healthintersections.com.au/fhir/Profile/metadata#type">
          <valueString value="string"/>
        </extension>
        <linkId value="ClinicalAssessment.diagnosis.id"/>
        <repeats value="true"/>
        <question>
          <linkId value="ClinicalAssessment.diagnosis.id.value"/>
          <text value="xml:id (or equivalent in JSON)"/>
          <type value="string"/>
        </question>
      </group>
      <group>
        <extension url="http://hl7.org/fhir/Profile/questionnaire-extensions#flyover">
          <valueString value="Specific text of code for diagnosis."/>
        </extension>
        <extension url="http://www.healthintersections.com.au/fhir/Profile/metadata#type">
          <valueString value="CodeableConcept"/>
        </extension>
        <linkId value="ClinicalAssessment.diagnosis.item"/>
        <text value="Specific text or code for diagnosis"/>
        <required value="true"/>
        <repeats value="true"/>
        <question>
          <linkId value="ClinicalAssessment.diagnosis.item.coding"/>
          <text value="code:"/>
          <type value="open-choice"/>
        </question>
        <question>
          <linkId value="ClinicalAssessment.diagnosis.item.text"/>
          <text value="text:"/>
          <type value="string"/>
        </question>
      </group>
      <group>
        <extension url="http://hl7.org/fhir/Profile/questionnaire-extensions#flyover">
          <valueString value="Which investigations support diagnosis."/>
        </extension>
        <extension url="http://www.healthintersections.com.au/fhir/Profile/metadata#type">
          <valueString value="string"/>
        </extension>
        <linkId value="ClinicalAssessment.diagnosis.cause"/>
        <repeats value="true"/>
        <question>
          <linkId value="ClinicalAssessment.diagnosis.cause.value"/>
          <text value="Which investigations support diagnosis"/>
          <type value="string"/>
        </question>
      </group>
    </group>
    <group>
      <extension url="http://hl7.org/fhir/Profile/questionnaire-extensions#flyover">
        <valueString value="Diagnoses/conditions resolved since the last assessment."/>
      </extension>
      <extension url="http://www.healthintersections.com.au/fhir/Profile/metadata#type">
        <valueString value="CodeableConcept"/>
      </extension>
      <linkId value="ClinicalAssessment.resolved"/>
      <text value="Diagnosies/conditions resolved since previous assessment"/>
      <repeats value="true"/>
      <question>
        <linkId value="ClinicalAssessment.resolved.coding"/>
        <text value="code:"/>
        <type value="open-choice"/>
      </question>
      <question>
        <linkId value="ClinicalAssessment.resolved.text"/>
        <text value="text:"/>
        <type value="string"/>
      </question>
    </group>
    <group>
      <extension url="http://hl7.org/fhir/Profile/questionnaire-extensions#flyover">
        <valueString value="Diagnosis considered not possible."/>
      </extension>
      <linkId value="ClinicalAssessment.ruledOut"/>
      <title value="Diagnosis considered not possible"/>
      <repeats value="true"/>
      <group>
        <extension url="http://hl7.org/fhir/Profile/questionnaire-extensions#flyover">
          <valueString value="unique id for the element within a resource (for internal references)."/>
        </extension>
        <extension url="http://www.healthintersections.com.au/fhir/Profile/metadata#type">
          <valueString value="string"/>
        </extension>
        <linkId value="ClinicalAssessment.ruledOut.id"/>
        <repeats value="true"/>
        <question>
          <linkId value="ClinicalAssessment.ruledOut.id.value"/>
          <text value="xml:id (or equivalent in JSON)"/>
          <type value="string"/>
        </question>
      </group>
      <group>
        <extension url="http://hl7.org/fhir/Profile/questionnaire-extensions#flyover">
          <valueString value="Specific text of code for diagnosis."/>
        </extension>
        <extension url="http://www.healthintersections.com.au/fhir/Profile/metadata#type">
          <valueString value="CodeableConcept"/>
        </extension>
        <linkId value="ClinicalAssessment.ruledOut.item"/>
        <text value="Specific text of code for diagnosis"/>
        <required value="true"/>
        <repeats value="true"/>
        <question>
          <linkId value="ClinicalAssessment.ruledOut.item.coding"/>
          <text value="code:"/>
          <type value="open-choice"/>
        </question>
        <question>
          <linkId value="ClinicalAssessment.ruledOut.item.text"/>
          <text value="text:"/>
          <type value="string"/>
        </question>
      </group>
      <group>
        <extension url="http://hl7.org/fhir/Profile/questionnaire-extensions#flyover">
          <valueString value="Grounds for elimination."/>
        </extension>
        <extension url="http://www.healthintersections.com.au/fhir/Profile/metadata#type">
          <valueString value="string"/>
        </extension>
        <linkId value="ClinicalAssessment.ruledOut.reason"/>
        <repeats value="true"/>
        <question>
          <linkId value="ClinicalAssessment.ruledOut.reason.value"/>
          <text value="Grounds for elimination"/>
          <type value="string"/>
        </question>
      </group>
    </group>
    <group>
      <extension url="http://hl7.org/fhir/Profile/questionnaire-extensions#flyover">
        <valueString value="Estimate of likely outcome."/>
      </extension>
      <extension url="http://www.healthintersections.com.au/fhir/Profile/metadata#type">
        <valueString value="string"/>
      </extension>
      <linkId value="ClinicalAssessment.prognosis"/>
      <repeats value="true"/>
      <question>
        <linkId value="ClinicalAssessment.prognosis.value"/>
        <text value="Estimate of likely outcome"/>
        <type value="string"/>
      </question>
    </group>
    <group>
      <extension url="http://hl7.org/fhir/Profile/questionnaire-extensions#flyover">
        <valueString value="Plan of action after assessment."/>
      </extension>
      <extension url="http://www.healthintersections.com.au/fhir/Profile/metadata#type">
        <valueString value="Reference"/>
      </extension>
      <linkId value="ClinicalAssessment.plan"/>
      <repeats value="true"/>
      <question>
        <extension url="http://www.healthintersections.com.au/fhir/Profile/metadata#reference">
          <valueString value="/CarePlan?subject=$subj&amp;patient=$subj&amp;encounter=$encounter"/>
        </extension>
        <linkId value="ClinicalAssessment.plan.value"/>
        <text value="Plan of action after assessment"/>
        <type value="reference"/>
      </question>
    </group>
    <group>
      <extension url="http://hl7.org/fhir/Profile/questionnaire-extensions#flyover">
        <valueString value="Actions taken during assessment."/>
      </extension>
      <linkId value="ClinicalAssessment.action"/>
      <text value="Actions taken during assessment"/>
      <repeats value="true"/>
      <question>
        <linkId value="ClinicalAssessment.action._type"/>
        <text value="type"/>
        <type value="choice"/>
        <options>
          <reference value="#vs4"/>
        </options>
        <group>
          <extension url="http://www.healthintersections.com.au/fhir/Profile/metadata#type">
            <valueString value="Reference"/>
          </extension>
          <linkId value="ClinicalAssessment.action._ReferralRequest"/>
          <question>
            <extension url="http://www.healthintersections.com.au/fhir/Profile/metadata#reference">
              <valueString value="/ReferralRequest?subject=$subj&amp;patient=$subj&amp;encounter=$encounter"/>
            </extension>
            <linkId value="ClinicalAssessment.action._ReferralRequest.value"/>
            <text value="ReferralRequest"/>
            <type value="reference"/>
          </question>
        </group>
        <group>
          <extension url="http://www.healthintersections.com.au/fhir/Profile/metadata#type">
            <valueString value="Reference"/>
          </extension>
          <linkId value="ClinicalAssessment.action._ProcedureRequest"/>
          <question>
            <extension url="http://www.healthintersections.com.au/fhir/Profile/metadata#reference">
              <valueString value="/ProcedureRequest?subject=$subj&amp;patient=$subj&amp;encounter=$encounter"/>
            </extension>
            <linkId value="ClinicalAssessment.action._ProcedureRequest.value"/>
            <text value="ProcedureRequest"/>
            <type value="reference"/>
          </question>
        </group>
        <group>
          <extension url="http://www.healthintersections.com.au/fhir/Profile/metadata#type">
            <valueString value="Reference"/>
          </extension>
          <linkId value="ClinicalAssessment.action._Procedure"/>
          <question>
            <extension url="http://www.healthintersections.com.au/fhir/Profile/metadata#reference">
              <valueString value="/Procedure?subject=$subj&amp;patient=$subj&amp;encounter=$encounter"/>
            </extension>
            <linkId value="ClinicalAssessment.action._Procedure.value"/>
            <text value="Procedure"/>
            <type value="reference"/>
          </question>
        </group>
        <group>
          <extension url="http://www.healthintersections.com.au/fhir/Profile/metadata#type">
            <valueString value="Reference"/>
          </extension>
          <linkId value="ClinicalAssessment.action._MedicationPrescription"/>
          <question>
            <extension url="http://www.healthintersections.com.au/fhir/Profile/metadata#reference">
              <valueString value="/MedicationPrescription?subject=$subj&amp;patient=$subj&amp;encounter=$encounter"/>
            </extension>
            <linkId value="ClinicalAssessment.action._MedicationPrescription.value"/>
            <text value="MedicationPrescription"/>
            <type value="reference"/>
          </question>
        </group>
        <group>
          <extension url="http://www.healthintersections.com.au/fhir/Profile/metadata#type">
            <valueString value="Reference"/>
          </extension>
          <linkId value="ClinicalAssessment.action._DiagnosticOrder"/>
          <question>
            <extension url="http://www.healthintersections.com.au/fhir/Profile/metadata#reference">
              <valueString value="/DiagnosticOrder?subject=$subj&amp;patient=$subj&amp;encounter=$encounter"/>
            </extension>
            <linkId value="ClinicalAssessment.action._DiagnosticOrder.value"/>
            <text value="DiagnosticOrder"/>
            <type value="reference"/>
          </question>
        </group>
        <group>
          <extension url="http://www.healthintersections.com.au/fhir/Profile/metadata#type">
            <valueString value="Reference"/>
          </extension>
          <linkId value="ClinicalAssessment.action._NutritionOrder"/>
          <question>
            <extension url="http://www.healthintersections.com.au/fhir/Profile/metadata#reference">
              <valueString value="/NutritionOrder?subject=$subj&amp;patient=$subj&amp;encounter=$encounter"/>
            </extension>
            <linkId value="ClinicalAssessment.action._NutritionOrder.value"/>
            <text value="NutritionOrder"/>
            <type value="reference"/>
          </question>
        </group>
        <group>
          <extension url="http://www.healthintersections.com.au/fhir/Profile/metadata#type">
            <valueString value="Reference"/>
          </extension>
          <linkId value="ClinicalAssessment.action._Supply"/>
          <question>
            <extension url="http://www.healthintersections.com.au/fhir/Profile/metadata#reference">
              <valueString value="/Supply?subject=$subj&amp;patient=$subj&amp;encounter=$encounter"/>
            </extension>
            <linkId value="ClinicalAssessment.action._Supply.value"/>
            <text value="Supply"/>
            <type value="reference"/>
          </question>
        </group>
        <group>
          <extension url="http://www.healthintersections.com.au/fhir/Profile/metadata#type">
            <valueString value="Reference"/>
          </extension>
          <linkId value="ClinicalAssessment.action._Appointment"/>
          <question>
            <extension url="http://www.healthintersections.com.au/fhir/Profile/metadata#reference">
              <valueString value="/Appointment?subject=$subj&amp;patient=$subj&amp;encounter=$encounter"/>
            </extension>
            <linkId value="ClinicalAssessment.action._Appointment.value"/>
            <text value="Appointment"/>
            <type value="reference"/>
          </question>
        </group>
      </question>
    </group>
  </group>
</Questionnaire>