<?xml version="1.0" encoding="UTF-8"?>

<Questionnaire xmlns="http://hl7.org/fhir">
  <id value="qs1"/>
  <contained>
    <ValueSet>
      <id value="vs2"/>
      <identifier value="urn:uuid:80ddde9d-0deb-4a6b-b2d3-2584f0eacf30"/>
      <name value="Type options for DiagnosticOrder.subject"/>
      <description value="Type options for DiagnosticOrder.subject"/>
      <status value="active"/>
      <expansion>
        <timestamp value="2014-12-30T11:00:15+00:00"/>
        <contains>
          <system value="http://hl7.org/fhir/resource-types"/>
          <code value="Patient"/>
          <display value="Patient"/>
        </contains>
        <contains>
          <system value="http://hl7.org/fhir/resource-types"/>
          <code value="Group"/>
          <display value="Group"/>
        </contains>
        <contains>
          <system value="http://hl7.org/fhir/resource-types"/>
          <code value="Location"/>
          <display value="Location"/>
        </contains>
        <contains>
          <system value="http://hl7.org/fhir/resource-types"/>
          <code value="Device"/>
          <display value="Device"/>
        </contains>
      </expansion>
    </ValueSet>
  </contained>
  <contained>
    <ValueSet>
      <id value="vs3"/>
      <identifier value="urn:uuid:e7524180-383a-4f36-bf33-03acdfd449e2"/>
      <name value="Type options for DiagnosticOrder.supportingInformation"/>
      <description value="Type options for DiagnosticOrder.supportingInformation"/>
      <status value="active"/>
      <expansion>
        <timestamp value="2014-12-30T11:00:15+00:00"/>
        <contains>
          <system value="http://hl7.org/fhir/resource-types"/>
          <code value="Observation"/>
          <display value="Observation"/>
        </contains>
        <contains>
          <system value="http://hl7.org/fhir/resource-types"/>
          <code value="Condition"/>
          <display value="Condition"/>
        </contains>
      </expansion>
    </ValueSet>
  </contained>
  <contained>
    <ValueSet>
      <id value="vs4"/>
      <identifier value="urn:uuid:2b7d7a30-d4a7-423e-87ea-460983a8015d"/>
      <name value="Type options for DiagnosticOrder.event.actor"/>
      <description value="Type options for DiagnosticOrder.event.actor"/>
      <status value="active"/>
      <expansion>
        <timestamp value="2014-12-30T11:00:15+00:00"/>
        <contains>
          <system value="http://hl7.org/fhir/resource-types"/>
          <code value="Practitioner"/>
          <display value="Practitioner"/>
        </contains>
        <contains>
          <system value="http://hl7.org/fhir/resource-types"/>
          <code value="Device"/>
          <display value="Device"/>
        </contains>
      </expansion>
    </ValueSet>
  </contained>
  <identifier>
    <system value="urn:ietf:rfc:3986"/>
  </identifier>
  <status value="draft"/>
  <date value="2014-12-30T10:55:31"/>
  <publisher value="HL7 FHIR Project (Orders and Observations)"/>
  <group>
    <extension url="http://hl7.org/fhir/Profile/questionnaire-extensions#flyover">
      <valueString value="A request for a diagnostic investigation service to be performed."/>
    </extension>
    <linkId value="DiagnosticOrder"/>
    <title value="A request for a diagnostic service"/>
    <required value="true"/>
    <group>
      <extension url="http://hl7.org/fhir/Profile/questionnaire-extensions#flyover">
        <valueString value="The logical id of the resource, as used in the url for the resoure. Once assigned, this value never changes. The only time that a resource does not have an id is when it is being submitted to the server using a create operation. Bundles always have an id, though it is usually a generated UUID."/>
      </extension>
      <extension url="http://www.healthintersections.com.au/fhir/Profile/metadata#type">
        <valueString value="string"/>
      </extension>
      <linkId value="DiagnosticOrder.id"/>
      <repeats value="true"/>
      <question>
        <linkId value="DiagnosticOrder.id.value"/>
        <text value="Logical id of this artefact"/>
        <type value="string"/>
      </question>
    </group>
    <group>
      <extension url="http://hl7.org/fhir/Profile/questionnaire-extensions#flyover">
        <valueString value="The metadata about the resource. This is content that is maintained by the infrastructure. Changes to the content may not always be associated with version changes to the resource."/>
      </extension>
      <linkId value="DiagnosticOrder.meta"/>
      <title value="Metadata about the resource"/>
      <group>
        <extension url="http://hl7.org/fhir/Profile/questionnaire-extensions#flyover">
          <valueString value="unique id for the element within a resource (for internal references)."/>
        </extension>
        <extension url="http://www.healthintersections.com.au/fhir/Profile/metadata#type">
          <valueString value="string"/>
        </extension>
        <linkId value="DiagnosticOrder.meta.id"/>
        <repeats value="true"/>
        <question>
          <linkId value="DiagnosticOrder.meta.id.value"/>
          <text value="xml:id (or equivalent in JSON)"/>
          <type value="string"/>
        </question>
      </group>
      <group>
        <extension url="http://hl7.org/fhir/Profile/questionnaire-extensions#flyover">
          <valueString value="The version specific identifier, as it appears in the version portion of the url. This values changes when the resource is created, updated, or deleted. The server assigns this value, and ignores what the client specifies, except in the case that the server is imposing version integrity on updates/deletes."/>
        </extension>
        <extension url="http://www.healthintersections.com.au/fhir/Profile/metadata#type">
          <valueString value="string"/>
        </extension>
        <linkId value="DiagnosticOrder.meta.versionId"/>
        <repeats value="true"/>
        <question>
          <linkId value="DiagnosticOrder.meta.versionId.value"/>
          <text value="Version specific identifier"/>
          <type value="string"/>
        </question>
      </group>
      <group>
        <extension url="http://hl7.org/fhir/Profile/questionnaire-extensions#flyover">
          <valueString value="When the resource last changed - e.g. when the version changed. This value is always populated except when the resource is first being created. The server / resource manager sets this value; what a client provides is irrelevant."/>
        </extension>
        <extension url="http://www.healthintersections.com.au/fhir/Profile/metadata#type">
          <valueString value="instant"/>
        </extension>
        <linkId value="DiagnosticOrder.meta.lastUpdated"/>
        <repeats value="true"/>
        <question>
          <linkId value="DiagnosticOrder.meta.lastUpdated.value"/>
          <text value="When the resource version last changed"/>
          <type value="instant"/>
        </question>
      </group>
      <group>
        <extension url="http://hl7.org/fhir/Profile/questionnaire-extensions#flyover">
          <valueString value="A list of profiles that this resource claims to conform to. The URL is a reference to Profile.url. It is up to the server and/or other infrastruture of policy to determine whether/how these claims are verified and/or updated over tiem."/>
        </extension>
        <extension url="http://www.healthintersections.com.au/fhir/Profile/metadata#type">
          <valueString value="uri"/>
        </extension>
        <linkId value="DiagnosticOrder.meta.profile"/>
        <repeats value="true"/>
        <question>
          <linkId value="DiagnosticOrder.meta.profile.value"/>
          <text value="Profiles this resource claims to conform to"/>
          <type value="string"/>
        </question>
      </group>
      <group>
        <extension url="http://hl7.org/fhir/Profile/questionnaire-extensions#flyover">
          <valueString value="Security labels applied to this resource. These tags connect specific resources to the overall security policy and infrastructure. The security labels can be updated without changing the stated version of the resource."/>
        </extension>
        <extension url="http://www.healthintersections.com.au/fhir/Profile/metadata#type">
          <valueString value="Coding"/>
        </extension>
        <linkId value="DiagnosticOrder.meta.security"/>
        <repeats value="true"/>
        <question>
          <linkId value="DiagnosticOrder.meta.security.value"/>
          <text value="Security Labels applied to this resource"/>
          <type value="open-choice"/>
        </question>
      </group>
      <group>
        <extension url="http://hl7.org/fhir/Profile/questionnaire-extensions#flyover">
          <valueString value="Tags applied to this resource. Tags are intended to to be used to identify and relate resources to process and workflow, and applications are not required to consider the tags when interpreting the meaning of a resource. The tags can be updated without changing the stated version of the resource."/>
        </extension>
        <extension url="http://www.healthintersections.com.au/fhir/Profile/metadata#type">
          <valueString value="Coding"/>
        </extension>
        <linkId value="DiagnosticOrder.meta.tag"/>
        <repeats value="true"/>
        <question>
          <linkId value="DiagnosticOrder.meta.tag.value"/>
          <text value="Tags applied"/>
          <type value="open-choice"/>
        </question>
      </group>
    </group>
    <group>
      <extension url="http://hl7.org/fhir/Profile/questionnaire-extensions#flyover">
        <valueString value="A reference to a set of rules that were followed when the resource was constructed, and which must be understood when processing the content. Asserting this rule set restricts the content to be only understood by a limited set of trading partners. This inherently limits the usefulness of the data in the long term. However the existing health eco-system is highly fractured, and not yet ready to define, collect, and exchange data in a generally computable sense. Wherever possible, implementers and/or specification writers should avoid using this element as much as possible."/>
      </extension>
      <extension url="http://www.healthintersections.com.au/fhir/Profile/metadata#type">
        <valueString value="uri"/>
      </extension>
      <linkId value="DiagnosticOrder.implicitRules"/>
      <repeats value="true"/>
      <question>
        <linkId value="DiagnosticOrder.implicitRules.value"/>
        <text value="A set of rules under which this content was created"/>
        <type value="string"/>
      </question>
    </group>
    <group>
      <extension url="http://hl7.org/fhir/Profile/questionnaire-extensions#flyover">
        <valueString value="The base language in which the resource is written. Language is provided to support indexing and accessibility (typically, services such as text to speech use the language tag). The html language tag in the narrative applies  to the narrative. The language tag on the resource may be used to specify the language of other presentations generated from the data in the resource

Not all the content has to be in the base language. The Resource.language should not be assumed to apply to the narrative automatically. If a language is specified, it should it also be specified on the div element in the html (see rules in HTML5 for information about the relationship between xml:lang and the html lang attribute)."/>
      </extension>
      <extension url="http://www.healthintersections.com.au/fhir/Profile/metadata#type">
        <valueString value="code"/>
      </extension>
      <linkId value="DiagnosticOrder.language"/>
      <repeats value="true"/>
      <question>
        <linkId value="DiagnosticOrder.language.value"/>
        <text value="language"/>
        <type value="choice"/>
      </question>
    </group>
    <group>
      <extension url="http://hl7.org/fhir/Profile/questionnaire-extensions#flyover">
        <valueString value="A human-readable narrative that contains a summary of the resource, and may be used to represent the content of the resource to a human. The narrative need not encode all the structured data, but is required to contain sufficient detail to make it &quot;clinically safe&quot; for a human to just read the narrative. Resource definitions may define what content should be represented in the narrative to ensure clinical safety. Contained resources do not have narrative. Resources that are not contained SHOULD have a narrative."/>
      </extension>
      <linkId value="DiagnosticOrder.text"/>
      <text value="Text summary of the resource, for human interpretation"/>
      <repeats value="true"/>
    </group>
    <group>
      <extension url="http://hl7.org/fhir/Profile/questionnaire-extensions#flyover">
        <valueString value="These resources do not have an independent existence apart from the resource that contains them - they cannot be identified independently, and nor can they have their own independent transaction scope. This should never be done when the content can be identified properly, as once identification is lost, it is extremely difficult (and context dependent) to restore it again."/>
      </extension>
      <linkId value="DiagnosticOrder.contained"/>
      <text value="Contained, inline Resources"/>
      <repeats value="true"/>
    </group>
    <group>
      <extension url="http://hl7.org/fhir/Profile/questionnaire-extensions#flyover">
        <valueString value="Who or what the investigation is to be performed on. This is usually a human patient, but diagnostic tests can also be requested on animals, groups of humans or animals, devices such as dialysis machines, or even locations (typically for environmental scans)."/>
      </extension>
      <linkId value="DiagnosticOrder.subject"/>
      <text value="Who and/or what test is about"/>
      <required value="true"/>
      <repeats value="true"/>
      <question>
        <linkId value="DiagnosticOrder.subject._type"/>
        <text value="type"/>
        <type value="choice"/>
        <options>
          <reference value="#vs2"/>
        </options>
        <group>
          <extension url="http://www.healthintersections.com.au/fhir/Profile/metadata#type">
            <valueString value="Reference"/>
          </extension>
          <linkId value="DiagnosticOrder.subject._Patient"/>
          <question>
            <extension url="http://www.healthintersections.com.au/fhir/Profile/metadata#reference">
              <valueString value="/Patient?subject=$subj&amp;patient=$subj&amp;encounter=$encounter"/>
            </extension>
            <linkId value="DiagnosticOrder.subject._Patient.value"/>
            <text value="Patient"/>
            <type value="reference"/>
          </question>
        </group>
        <group>
          <extension url="http://www.healthintersections.com.au/fhir/Profile/metadata#type">
            <valueString value="Reference"/>
          </extension>
          <linkId value="DiagnosticOrder.subject._Group"/>
          <question>
            <extension url="http://www.healthintersections.com.au/fhir/Profile/metadata#reference">
              <valueString value="/Group?subject=$subj&amp;patient=$subj&amp;encounter=$encounter"/>
            </extension>
            <linkId value="DiagnosticOrder.subject._Group.value"/>
            <text value="Group"/>
            <type value="reference"/>
          </question>
        </group>
        <group>
          <extension url="http://www.healthintersections.com.au/fhir/Profile/metadata#type">
            <valueString value="Reference"/>
          </extension>
          <linkId value="DiagnosticOrder.subject._Location"/>
          <question>
            <extension url="http://www.healthintersections.com.au/fhir/Profile/metadata#reference">
              <valueString value="/Location?subject=$subj&amp;patient=$subj&amp;encounter=$encounter"/>
            </extension>
            <linkId value="DiagnosticOrder.subject._Location.value"/>
            <text value="Location"/>
            <type value="reference"/>
          </question>
        </group>
        <group>
          <extension url="http://www.healthintersections.com.au/fhir/Profile/metadata#type">
            <valueString value="Reference"/>
          </extension>
          <linkId value="DiagnosticOrder.subject._Device"/>
          <question>
            <extension url="http://www.healthintersections.com.au/fhir/Profile/metadata#reference">
              <valueString value="/Device?subject=$subj&amp;patient=$subj&amp;encounter=$encounter"/>
            </extension>
            <linkId value="DiagnosticOrder.subject._Device.value"/>
            <text value="Device"/>
            <type value="reference"/>
          </question>
        </group>
      </question>
    </group>
    <group>
      <extension url="http://hl7.org/fhir/Profile/questionnaire-extensions#flyover">
        <valueString value="The practitioner that holds legal responsibility for ordering the investigation."/>
      </extension>
      <extension url="http://www.healthintersections.com.au/fhir/Profile/metadata#type">
        <valueString value="Reference"/>
      </extension>
      <linkId value="DiagnosticOrder.orderer"/>
      <repeats value="true"/>
      <question>
        <extension url="http://www.healthintersections.com.au/fhir/Profile/metadata#reference">
          <valueString value="/Practitioner?subject=$subj&amp;patient=$subj&amp;encounter=$encounter"/>
        </extension>
        <linkId value="DiagnosticOrder.orderer.value"/>
        <text value="Who ordered the test"/>
        <type value="reference"/>
      </question>
    </group>
    <group>
      <extension url="http://hl7.org/fhir/Profile/questionnaire-extensions#flyover">
        <valueString value="Identifiers assigned to this order by the order or by the receiver."/>
      </extension>
      <extension url="http://www.healthintersections.com.au/fhir/Profile/metadata#type">
        <valueString value="Identifier"/>
      </extension>
      <linkId value="DiagnosticOrder.identifier"/>
      <text value="Identifiers assigned to this order"/>
      <repeats value="true"/>
      <question>
        <linkId value="DiagnosticOrder.identifier.label"/>
        <text value="label:"/>
        <type value="string"/>
      </question>
      <question>
        <linkId value="DiagnosticOrder.identifier.system"/>
        <text value="system:"/>
        <type value="string"/>
      </question>
      <question>
        <linkId value="DiagnosticOrder.identifier.value"/>
        <text value="value:"/>
        <type value="string"/>
      </question>
    </group>
    <group>
      <extension url="http://hl7.org/fhir/Profile/questionnaire-extensions#flyover">
        <valueString value="An encounter that provides additional information about the healthcare context in which this request is made."/>
      </extension>
      <extension url="http://www.healthintersections.com.au/fhir/Profile/metadata#type">
        <valueString value="Reference"/>
      </extension>
      <linkId value="DiagnosticOrder.encounter"/>
      <repeats value="true"/>
      <question>
        <extension url="http://www.healthintersections.com.au/fhir/Profile/metadata#reference">
          <valueString value="/Encounter?subject=$subj&amp;patient=$subj&amp;encounter=$encounter"/>
        </extension>
        <linkId value="DiagnosticOrder.encounter.value"/>
        <text value="The encounter that this diagnostic order is associated with"/>
        <type value="reference"/>
      </question>
    </group>
    <group>
      <extension url="http://hl7.org/fhir/Profile/questionnaire-extensions#flyover">
        <valueString value="An explanation or justification for why this diagnostic investigation is being requested. This may be used to decide how the diagnostic investigation will be performed, or even if it will be performed at all."/>
      </extension>
      <extension url="http://www.healthintersections.com.au/fhir/Profile/metadata#type">
        <valueString value="string"/>
      </extension>
      <linkId value="DiagnosticOrder.clinicalNotes"/>
      <repeats value="true"/>
      <question>
        <linkId value="DiagnosticOrder.clinicalNotes.value"/>
        <text value="Explanation/Justification for test"/>
        <type value="string"/>
      </question>
    </group>
    <group>
      <extension url="http://hl7.org/fhir/Profile/questionnaire-extensions#flyover">
        <valueString value="Additional clinical information about the patient or specimen that may influence test interpretations. This information includes diagnosis, clinical findings and other observations.  Examples include reporting the amount of inspired carbon dioxide for blood gasses, the point in the menstrual cycle for cervical pap tests, and other conditions that influence test interpretations."/>
      </extension>
      <linkId value="DiagnosticOrder.supportingInformation"/>
      <text value="Supporting observations or conditions for this request"/>
      <repeats value="true"/>
      <question>
        <linkId value="DiagnosticOrder.supportingInformation._type"/>
        <text value="type"/>
        <type value="choice"/>
        <options>
          <reference value="#vs3"/>
        </options>
        <group>
          <extension url="http://www.healthintersections.com.au/fhir/Profile/metadata#type">
            <valueString value="Reference"/>
          </extension>
          <linkId value="DiagnosticOrder.supportingInformation._Observation"/>
          <question>
            <extension url="http://www.healthintersections.com.au/fhir/Profile/metadata#reference">
              <valueString value="/Observation?subject=$subj&amp;patient=$subj&amp;encounter=$encounter"/>
            </extension>
            <linkId value="DiagnosticOrder.supportingInformation._Observation.value"/>
            <text value="Observation"/>
            <type value="reference"/>
          </question>
        </group>
        <group>
          <extension url="http://www.healthintersections.com.au/fhir/Profile/metadata#type">
            <valueString value="Reference"/>
          </extension>
          <linkId value="DiagnosticOrder.supportingInformation._Condition"/>
          <question>
            <extension url="http://www.healthintersections.com.au/fhir/Profile/metadata#reference">
              <valueString value="/Condition?subject=$subj&amp;patient=$subj&amp;encounter=$encounter"/>
            </extension>
            <linkId value="DiagnosticOrder.supportingInformation._Condition.value"/>
            <text value="Condition"/>
            <type value="reference"/>
          </question>
        </group>
      </question>
    </group>
    <group>
      <extension url="http://hl7.org/fhir/Profile/questionnaire-extensions#flyover">
        <valueString value="One or more specimens that the diagnostic investigation is about. Many investigation requests will create a need for specimens, but the request itself is not actually about the specimens. This is provided for when the diagnostic investigation is requested on already existing specimens."/>
      </extension>
      <extension url="http://www.healthintersections.com.au/fhir/Profile/metadata#type">
        <valueString value="Reference"/>
      </extension>
      <linkId value="DiagnosticOrder.specimen"/>
      <repeats value="true"/>
      <question>
        <extension url="http://www.healthintersections.com.au/fhir/Profile/metadata#reference">
          <valueString value="/Specimen?subject=$subj&amp;patient=$subj&amp;encounter=$encounter"/>
        </extension>
        <linkId value="DiagnosticOrder.specimen.value"/>
        <text value="If the whole order relates to specific specimens"/>
        <type value="reference"/>
      </question>
    </group>
    <group>
      <extension url="http://hl7.org/fhir/Profile/questionnaire-extensions#flyover">
        <valueString value="The status of the order. Typically the system placing the order sets the status to requested. Thereafter, the order is maintained by the receiver that updates the status as the request is handled."/>
      </extension>
      <extension url="http://www.healthintersections.com.au/fhir/Profile/metadata#type">
        <valueString value="code"/>
      </extension>
      <linkId value="DiagnosticOrder.status"/>
      <repeats value="true"/>
      <question>
        <linkId value="DiagnosticOrder.status.value"/>
        <text value="status"/>
        <type value="choice"/>
      </question>
    </group>
    <group>
      <extension url="http://hl7.org/fhir/Profile/questionnaire-extensions#flyover">
        <valueString value="The clinical priority associated with this order. The Order resource also has a priority. Generally, these should be the same, but they can be different, for instance in the case where the clinician indicates that the order is urgent, but the subsequent workflow process overrule this priority for some reason. The effective default value is &quot;normal&quot;."/>
      </extension>
      <extension url="http://www.healthintersections.com.au/fhir/Profile/metadata#type">
        <valueString value="code"/>
      </extension>
      <linkId value="DiagnosticOrder.priority"/>
      <repeats value="true"/>
      <question>
        <linkId value="DiagnosticOrder.priority.value"/>
        <text value="priority"/>
        <type value="choice"/>
      </question>
    </group>
    <group>
      <extension url="http://hl7.org/fhir/Profile/questionnaire-extensions#flyover">
        <valueString value="A summary of the events of interest that have occurred as the request is processed. E.g. when the order was made, various processing steps (specimens received), when it was completed."/>
      </extension>
      <linkId value="DiagnosticOrder.event"/>
      <title value="A list of events of interest in the lifecycle"/>
      <text value="This is not the same as an audit trail - it is a view of the important things that happened in the past. Typically, there would only be one entry for any given status, and systems may not record all the status events."/>
      <repeats value="true"/>
      <group>
        <extension url="http://hl7.org/fhir/Profile/questionnaire-extensions#flyover">
          <valueString value="unique id for the element within a resource (for internal references)."/>
        </extension>
        <extension url="http://www.healthintersections.com.au/fhir/Profile/metadata#type">
          <valueString value="string"/>
        </extension>
        <linkId value="DiagnosticOrder.event.id"/>
        <repeats value="true"/>
        <question>
          <linkId value="DiagnosticOrder.event.id.value"/>
          <text value="xml:id (or equivalent in JSON)"/>
          <type value="string"/>
        </question>
      </group>
      <group>
        <extension url="http://hl7.org/fhir/Profile/questionnaire-extensions#flyover">
          <valueString value="The status for the event."/>
        </extension>
        <extension url="http://www.healthintersections.com.au/fhir/Profile/metadata#type">
          <valueString value="code"/>
        </extension>
        <linkId value="DiagnosticOrder.event.status"/>
        <required value="true"/>
        <repeats value="true"/>
        <question>
          <linkId value="DiagnosticOrder.event.status.value"/>
          <text value="status"/>
          <type value="choice"/>
        </question>
      </group>
      <group>
        <extension url="http://hl7.org/fhir/Profile/questionnaire-extensions#flyover">
          <valueString value="Additional information about the event that occurred - e.g. if the status remained unchanged."/>
        </extension>
        <extension url="http://www.healthintersections.com.au/fhir/Profile/metadata#type">
          <valueString value="CodeableConcept"/>
        </extension>
        <linkId value="DiagnosticOrder.event.description"/>
        <text value="More information about the event and its context"/>
        <repeats value="true"/>
        <question>
          <linkId value="DiagnosticOrder.event.description.coding"/>
          <text value="code:"/>
          <type value="open-choice"/>
        </question>
        <question>
          <linkId value="DiagnosticOrder.event.description.text"/>
          <text value="text:"/>
          <type value="string"/>
        </question>
      </group>
      <group>
        <extension url="http://hl7.org/fhir/Profile/questionnaire-extensions#flyover">
          <valueString value="The date/time at which the event occurred."/>
        </extension>
        <extension url="http://www.healthintersections.com.au/fhir/Profile/metadata#type">
          <valueString value="datetime"/>
        </extension>
        <linkId value="DiagnosticOrder.event.dateTime"/>
        <required value="true"/>
        <repeats value="true"/>
        <question>
          <linkId value="DiagnosticOrder.event.dateTime.value"/>
          <text value="The date at which the event happened"/>
          <type value="dateTime"/>
        </question>
      </group>
      <group>
        <extension url="http://hl7.org/fhir/Profile/questionnaire-extensions#flyover">
          <valueString value="The person who was responsible for performing or recording the action."/>
        </extension>
        <linkId value="DiagnosticOrder.event.actor"/>
        <text value="Who recorded or did this"/>
        <repeats value="true"/>
        <question>
          <linkId value="DiagnosticOrder.event.actor._type"/>
          <text value="type"/>
          <type value="choice"/>
          <options>
            <reference value="#vs4"/>
          </options>
          <group>
            <extension url="http://www.healthintersections.com.au/fhir/Profile/metadata#type">
              <valueString value="Reference"/>
            </extension>
            <linkId value="DiagnosticOrder.event.actor._Practitioner"/>
            <question>
              <extension url="http://www.healthintersections.com.au/fhir/Profile/metadata#reference">
                <valueString value="/Practitioner?subject=$subj&amp;patient=$subj&amp;encounter=$encounter"/>
              </extension>
              <linkId value="DiagnosticOrder.event.actor._Practitioner.value"/>
              <text value="Practitioner"/>
              <type value="reference"/>
            </question>
          </group>
          <group>
            <extension url="http://www.healthintersections.com.au/fhir/Profile/metadata#type">
              <valueString value="Reference"/>
            </extension>
            <linkId value="DiagnosticOrder.event.actor._Device"/>
            <question>
              <extension url="http://www.healthintersections.com.au/fhir/Profile/metadata#reference">
                <valueString value="/Device?subject=$subj&amp;patient=$subj&amp;encounter=$encounter"/>
              </extension>
              <linkId value="DiagnosticOrder.event.actor._Device.value"/>
              <text value="Device"/>
              <type value="reference"/>
            </question>
          </group>
        </question>
      </group>
    </group>
    <group>
      <extension url="http://hl7.org/fhir/Profile/questionnaire-extensions#flyover">
        <valueString value="The specific diagnostic investigations that are requested as part of this request. Sometimes, there can only be one item per request, but in most contexts, more than one investigation can be requested."/>
      </extension>
      <linkId value="DiagnosticOrder.item"/>
      <title value="The items the orderer requested"/>
      <text value="There would always be at least one item in normal usage, but this is optional so that a workflow can quote order details without having to list the items."/>
      <repeats value="true"/>
      <group>
        <extension url="http://hl7.org/fhir/Profile/questionnaire-extensions#flyover">
          <valueString value="unique id for the element within a resource (for internal references)."/>
        </extension>
        <extension url="http://www.healthintersections.com.au/fhir/Profile/metadata#type">
          <valueString value="string"/>
        </extension>
        <linkId value="DiagnosticOrder.item.id"/>
        <repeats value="true"/>
        <question>
          <linkId value="DiagnosticOrder.item.id.value"/>
          <text value="xml:id (or equivalent in JSON)"/>
          <type value="string"/>
        </question>
      </group>
      <group>
        <extension url="http://hl7.org/fhir/Profile/questionnaire-extensions#flyover">
          <valueString value="A code that identifies a particular diagnostic investigation, or panel of investigations, that have been requested. Many laboratory tests and radiology tests embed the specimen/organ system in the test name, for example,  serum or serum/plasma glucose, or a chest xray. The specimen may not be recorded separately from the test code."/>
        </extension>
        <extension url="http://www.healthintersections.com.au/fhir/Profile/metadata#type">
          <valueString value="CodeableConcept"/>
        </extension>
        <linkId value="DiagnosticOrder.item.code"/>
        <text value="Code to indicate the item (test or panel) being ordered"/>
        <required value="true"/>
        <repeats value="true"/>
        <question>
          <linkId value="DiagnosticOrder.item.code.coding"/>
          <text value="code:"/>
          <type value="open-choice"/>
        </question>
        <question>
          <linkId value="DiagnosticOrder.item.code.text"/>
          <text value="text:"/>
          <type value="string"/>
        </question>
      </group>
      <group>
        <extension url="http://hl7.org/fhir/Profile/questionnaire-extensions#flyover">
          <valueString value="If the item is related to a specific specimen. A single specimen should not appear in both DiagnosticOrder.specimen and DiagnosticOrder.item.specimen."/>
        </extension>
        <extension url="http://www.healthintersections.com.au/fhir/Profile/metadata#type">
          <valueString value="Reference"/>
        </extension>
        <linkId value="DiagnosticOrder.item.specimen"/>
        <repeats value="true"/>
        <question>
          <extension url="http://www.healthintersections.com.au/fhir/Profile/metadata#reference">
            <valueString value="/Specimen?subject=$subj&amp;patient=$subj&amp;encounter=$encounter"/>
          </extension>
          <linkId value="DiagnosticOrder.item.specimen.value"/>
          <text value="If this item relates to specific specimens"/>
          <type value="reference"/>
        </question>
      </group>
      <group>
        <extension url="http://hl7.org/fhir/Profile/questionnaire-extensions#flyover">
          <valueString value="Anatomical location where the request test should be performed."/>
        </extension>
        <extension url="http://www.healthintersections.com.au/fhir/Profile/metadata#type">
          <valueString value="CodeableConcept"/>
        </extension>
        <linkId value="DiagnosticOrder.item.bodySite"/>
        <text value="Location of requested test (if applicable)"/>
        <repeats value="true"/>
        <question>
          <linkId value="DiagnosticOrder.item.bodySite.coding"/>
          <text value="code:"/>
          <type value="open-choice"/>
        </question>
        <question>
          <linkId value="DiagnosticOrder.item.bodySite.text"/>
          <text value="text:"/>
          <type value="string"/>
        </question>
      </group>
      <group>
        <extension url="http://hl7.org/fhir/Profile/questionnaire-extensions#flyover">
          <valueString value="The status of this individual item within the order. If the request has multiple items that have their own life cycles, then the items will have their own status while the overall diagnostic order is (usually) &quot;in progress&quot;."/>
        </extension>
        <extension url="http://www.healthintersections.com.au/fhir/Profile/metadata#type">
          <valueString value="code"/>
        </extension>
        <linkId value="DiagnosticOrder.item.status"/>
        <repeats value="true"/>
        <question>
          <linkId value="DiagnosticOrder.item.status.value"/>
          <text value="status"/>
          <type value="choice"/>
        </question>
      </group>
      <group>
        <extension url="http://hl7.org/fhir/Profile/questionnaire-extensions#flyover">
          <valueString value="A summary of the events of interest that have occurred as this item of the request is processed."/>
        </extension>
        <linkId value="DiagnosticOrder.item.event"/>
        <title value="Events specific to this item"/>
        <repeats value="true"/>
      </group>
    </group>
  </group>
</Questionnaire>