<?xml version="1.0" encoding="UTF-8"?>

<Questionnaire xmlns="http://hl7.org/fhir">
  <id value="qs1"/>
  <contained>
    <ValueSet>
      <id value="vs2"/>
      <identifier value="urn:uuid:1aaa842e-67ee-4ee2-8379-aa1ca4e0595a"/>
      <name value="Type options for FamilyHistory.relation.born[x]"/>
      <description value="Type options for FamilyHistory.relation.born[x]"/>
      <status value="active"/>
      <expansion>
        <timestamp value="2014-12-30T11:01:18+00:00"/>
        <contains>
          <system value="http://hl7.org/fhir/data-types"/>
          <code value="Period"/>
          <display value="Period"/>
        </contains>
        <contains>
          <system value="http://hl7.org/fhir/data-types"/>
          <code value="date"/>
          <display value="date"/>
        </contains>
        <contains>
          <system value="http://hl7.org/fhir/data-types"/>
          <code value="string"/>
          <display value="string"/>
        </contains>
      </expansion>
    </ValueSet>
  </contained>
  <contained>
    <ValueSet>
      <id value="vs3"/>
      <identifier value="urn:uuid:d5d927b8-6df9-440f-bcb9-9d2e9d5b24ce"/>
      <name value="Type options for FamilyHistory.relation.age[x]"/>
      <description value="Type options for FamilyHistory.relation.age[x]"/>
      <status value="active"/>
      <expansion>
        <timestamp value="2014-12-30T11:01:18+00:00"/>
        <contains>
          <system value="http://hl7.org/fhir/data-types"/>
          <code value="Age"/>
          <display value="Age"/>
        </contains>
        <contains>
          <system value="http://hl7.org/fhir/data-types"/>
          <code value="Range"/>
          <display value="Range"/>
        </contains>
        <contains>
          <system value="http://hl7.org/fhir/data-types"/>
          <code value="string"/>
          <display value="string"/>
        </contains>
      </expansion>
    </ValueSet>
  </contained>
  <contained>
    <ValueSet>
      <id value="vs4"/>
      <identifier value="urn:uuid:aa281602-6e7f-4eb3-aba5-14e4e6d36d09"/>
      <name value="Type options for FamilyHistory.relation.deceased[x]"/>
      <description value="Type options for FamilyHistory.relation.deceased[x]"/>
      <status value="active"/>
      <expansion>
        <timestamp value="2014-12-30T11:01:18+00:00"/>
        <contains>
          <system value="http://hl7.org/fhir/data-types"/>
          <code value="boolean"/>
          <display value="boolean"/>
        </contains>
        <contains>
          <system value="http://hl7.org/fhir/data-types"/>
          <code value="Age"/>
          <display value="Age"/>
        </contains>
        <contains>
          <system value="http://hl7.org/fhir/data-types"/>
          <code value="Range"/>
          <display value="Range"/>
        </contains>
        <contains>
          <system value="http://hl7.org/fhir/data-types"/>
          <code value="date"/>
          <display value="date"/>
        </contains>
        <contains>
          <system value="http://hl7.org/fhir/data-types"/>
          <code value="string"/>
          <display value="string"/>
        </contains>
      </expansion>
    </ValueSet>
  </contained>
  <contained>
    <ValueSet>
      <id value="vs5"/>
      <identifier value="urn:uuid:fd8f301b-0d5d-486f-8d1e-ee0a2b4cf9f2"/>
      <name value="Type options for FamilyHistory.relation.condition.onset[x]"/>
      <description value="Type options for FamilyHistory.relation.condition.onset[x]"/>
      <status value="active"/>
      <expansion>
        <timestamp value="2014-12-30T11:01:18+00:00"/>
        <contains>
          <system value="http://hl7.org/fhir/data-types"/>
          <code value="Age"/>
          <display value="Age"/>
        </contains>
        <contains>
          <system value="http://hl7.org/fhir/data-types"/>
          <code value="Range"/>
          <display value="Range"/>
        </contains>
        <contains>
          <system value="http://hl7.org/fhir/data-types"/>
          <code value="string"/>
          <display value="string"/>
        </contains>
      </expansion>
    </ValueSet>
  </contained>
  <identifier>
    <system value="urn:ietf:rfc:3986"/>
  </identifier>
  <status value="draft"/>
  <date value="2014-12-30T10:55:31"/>
  <publisher value="HL7 FHIR Project (Patient Care)"/>
  <group>
    <extension url="http://hl7.org/fhir/Profile/questionnaire-extensions#flyover">
      <valueString value="Significant health events and conditions for people related to the subject relevant in the context of care for the subject."/>
    </extension>
    <linkId value="FamilyHistory"/>
    <title value="Information about patient&#39;s relatives, relevant for patient"/>
    <required value="true"/>
    <group>
      <extension url="http://hl7.org/fhir/Profile/questionnaire-extensions#flyover">
        <valueString value="The logical id of the resource, as used in the url for the resoure. Once assigned, this value never changes. The only time that a resource does not have an id is when it is being submitted to the server using a create operation. Bundles always have an id, though it is usually a generated UUID."/>
      </extension>
      <extension url="http://www.healthintersections.com.au/fhir/Profile/metadata#type">
        <valueString value="string"/>
      </extension>
      <linkId value="FamilyHistory.id"/>
      <repeats value="true"/>
      <question>
        <linkId value="FamilyHistory.id.value"/>
        <text value="Logical id of this artefact"/>
        <type value="string"/>
      </question>
    </group>
    <group>
      <extension url="http://hl7.org/fhir/Profile/questionnaire-extensions#flyover">
        <valueString value="The metadata about the resource. This is content that is maintained by the infrastructure. Changes to the content may not always be associated with version changes to the resource."/>
      </extension>
      <linkId value="FamilyHistory.meta"/>
      <title value="Metadata about the resource"/>
      <group>
        <extension url="http://hl7.org/fhir/Profile/questionnaire-extensions#flyover">
          <valueString value="unique id for the element within a resource (for internal references)."/>
        </extension>
        <extension url="http://www.healthintersections.com.au/fhir/Profile/metadata#type">
          <valueString value="string"/>
        </extension>
        <linkId value="FamilyHistory.meta.id"/>
        <repeats value="true"/>
        <question>
          <linkId value="FamilyHistory.meta.id.value"/>
          <text value="xml:id (or equivalent in JSON)"/>
          <type value="string"/>
        </question>
      </group>
      <group>
        <extension url="http://hl7.org/fhir/Profile/questionnaire-extensions#flyover">
          <valueString value="The version specific identifier, as it appears in the version portion of the url. This values changes when the resource is created, updated, or deleted. The server assigns this value, and ignores what the client specifies, except in the case that the server is imposing version integrity on updates/deletes."/>
        </extension>
        <extension url="http://www.healthintersections.com.au/fhir/Profile/metadata#type">
          <valueString value="string"/>
        </extension>
        <linkId value="FamilyHistory.meta.versionId"/>
        <repeats value="true"/>
        <question>
          <linkId value="FamilyHistory.meta.versionId.value"/>
          <text value="Version specific identifier"/>
          <type value="string"/>
        </question>
      </group>
      <group>
        <extension url="http://hl7.org/fhir/Profile/questionnaire-extensions#flyover">
          <valueString value="When the resource last changed - e.g. when the version changed. This value is always populated except when the resource is first being created. The server / resource manager sets this value; what a client provides is irrelevant."/>
        </extension>
        <extension url="http://www.healthintersections.com.au/fhir/Profile/metadata#type">
          <valueString value="instant"/>
        </extension>
        <linkId value="FamilyHistory.meta.lastUpdated"/>
        <repeats value="true"/>
        <question>
          <linkId value="FamilyHistory.meta.lastUpdated.value"/>
          <text value="When the resource version last changed"/>
          <type value="instant"/>
        </question>
      </group>
      <group>
        <extension url="http://hl7.org/fhir/Profile/questionnaire-extensions#flyover">
          <valueString value="A list of profiles that this resource claims to conform to. The URL is a reference to Profile.url. It is up to the server and/or other infrastruture of policy to determine whether/how these claims are verified and/or updated over tiem."/>
        </extension>
        <extension url="http://www.healthintersections.com.au/fhir/Profile/metadata#type">
          <valueString value="uri"/>
        </extension>
        <linkId value="FamilyHistory.meta.profile"/>
        <repeats value="true"/>
        <question>
          <linkId value="FamilyHistory.meta.profile.value"/>
          <text value="Profiles this resource claims to conform to"/>
          <type value="string"/>
        </question>
      </group>
      <group>
        <extension url="http://hl7.org/fhir/Profile/questionnaire-extensions#flyover">
          <valueString value="Security labels applied to this resource. These tags connect specific resources to the overall security policy and infrastructure. The security labels can be updated without changing the stated version of the resource."/>
        </extension>
        <extension url="http://www.healthintersections.com.au/fhir/Profile/metadata#type">
          <valueString value="Coding"/>
        </extension>
        <linkId value="FamilyHistory.meta.security"/>
        <repeats value="true"/>
        <question>
          <linkId value="FamilyHistory.meta.security.value"/>
          <text value="Security Labels applied to this resource"/>
          <type value="open-choice"/>
        </question>
      </group>
      <group>
        <extension url="http://hl7.org/fhir/Profile/questionnaire-extensions#flyover">
          <valueString value="Tags applied to this resource. Tags are intended to to be used to identify and relate resources to process and workflow, and applications are not required to consider the tags when interpreting the meaning of a resource. The tags can be updated without changing the stated version of the resource."/>
        </extension>
        <extension url="http://www.healthintersections.com.au/fhir/Profile/metadata#type">
          <valueString value="Coding"/>
        </extension>
        <linkId value="FamilyHistory.meta.tag"/>
        <repeats value="true"/>
        <question>
          <linkId value="FamilyHistory.meta.tag.value"/>
          <text value="Tags applied"/>
          <type value="open-choice"/>
        </question>
      </group>
    </group>
    <group>
      <extension url="http://hl7.org/fhir/Profile/questionnaire-extensions#flyover">
        <valueString value="A reference to a set of rules that were followed when the resource was constructed, and which must be understood when processing the content. Asserting this rule set restricts the content to be only understood by a limited set of trading partners. This inherently limits the usefulness of the data in the long term. However the existing health eco-system is highly fractured, and not yet ready to define, collect, and exchange data in a generally computable sense. Wherever possible, implementers and/or specification writers should avoid using this element as much as possible."/>
      </extension>
      <extension url="http://www.healthintersections.com.au/fhir/Profile/metadata#type">
        <valueString value="uri"/>
      </extension>
      <linkId value="FamilyHistory.implicitRules"/>
      <repeats value="true"/>
      <question>
        <linkId value="FamilyHistory.implicitRules.value"/>
        <text value="A set of rules under which this content was created"/>
        <type value="string"/>
      </question>
    </group>
    <group>
      <extension url="http://hl7.org/fhir/Profile/questionnaire-extensions#flyover">
        <valueString value="The base language in which the resource is written. Language is provided to support indexing and accessibility (typically, services such as text to speech use the language tag). The html language tag in the narrative applies  to the narrative. The language tag on the resource may be used to specify the language of other presentations generated from the data in the resource

Not all the content has to be in the base language. The Resource.language should not be assumed to apply to the narrative automatically. If a language is specified, it should it also be specified on the div element in the html (see rules in HTML5 for information about the relationship between xml:lang and the html lang attribute)."/>
      </extension>
      <extension url="http://www.healthintersections.com.au/fhir/Profile/metadata#type">
        <valueString value="code"/>
      </extension>
      <linkId value="FamilyHistory.language"/>
      <repeats value="true"/>
      <question>
        <linkId value="FamilyHistory.language.value"/>
        <text value="language"/>
        <type value="choice"/>
      </question>
    </group>
    <group>
      <extension url="http://hl7.org/fhir/Profile/questionnaire-extensions#flyover">
        <valueString value="A human-readable narrative that contains a summary of the resource, and may be used to represent the content of the resource to a human. The narrative need not encode all the structured data, but is required to contain sufficient detail to make it &quot;clinically safe&quot; for a human to just read the narrative. Resource definitions may define what content should be represented in the narrative to ensure clinical safety. Contained resources do not have narrative. Resources that are not contained SHOULD have a narrative."/>
      </extension>
      <linkId value="FamilyHistory.text"/>
      <text value="Text summary of the resource, for human interpretation"/>
      <repeats value="true"/>
    </group>
    <group>
      <extension url="http://hl7.org/fhir/Profile/questionnaire-extensions#flyover">
        <valueString value="These resources do not have an independent existence apart from the resource that contains them - they cannot be identified independently, and nor can they have their own independent transaction scope. This should never be done when the content can be identified properly, as once identification is lost, it is extremely difficult (and context dependent) to restore it again."/>
      </extension>
      <linkId value="FamilyHistory.contained"/>
      <text value="Contained, inline Resources"/>
      <repeats value="true"/>
    </group>
    <group>
      <extension url="http://hl7.org/fhir/Profile/questionnaire-extensions#flyover">
        <valueString value="This records identifiers associated with this family history record that are defined by business processes and/ or used to refer to it when a direct URL reference to the resource itself is not appropriate (e.g. in CDA documents, or in written / printed documentation)."/>
      </extension>
      <extension url="http://www.healthintersections.com.au/fhir/Profile/metadata#type">
        <valueString value="Identifier"/>
      </extension>
      <linkId value="FamilyHistory.identifier"/>
      <text value="External Id(s) for this record"/>
      <repeats value="true"/>
      <question>
        <linkId value="FamilyHistory.identifier.label"/>
        <text value="label:"/>
        <type value="string"/>
      </question>
      <question>
        <linkId value="FamilyHistory.identifier.system"/>
        <text value="system:"/>
        <type value="string"/>
      </question>
      <question>
        <linkId value="FamilyHistory.identifier.value"/>
        <text value="value:"/>
        <type value="string"/>
      </question>
    </group>
    <group>
      <extension url="http://hl7.org/fhir/Profile/questionnaire-extensions#flyover">
        <valueString value="The person who this history concerns."/>
      </extension>
      <extension url="http://www.healthintersections.com.au/fhir/Profile/metadata#type">
        <valueString value="Reference"/>
      </extension>
      <linkId value="FamilyHistory.patient"/>
      <required value="true"/>
      <repeats value="true"/>
      <question>
        <extension url="http://www.healthintersections.com.au/fhir/Profile/metadata#reference">
          <valueString value="/Patient?subject=$subj&amp;patient=$subj&amp;encounter=$encounter"/>
        </extension>
        <linkId value="FamilyHistory.patient.value"/>
        <text value="Patient history is about"/>
        <type value="reference"/>
      </question>
    </group>
    <group>
      <extension url="http://hl7.org/fhir/Profile/questionnaire-extensions#flyover">
        <valueString value="The date (and possibly time) when the family history was taken."/>
      </extension>
      <extension url="http://www.healthintersections.com.au/fhir/Profile/metadata#type">
        <valueString value="datetime"/>
      </extension>
      <linkId value="FamilyHistory.date"/>
      <repeats value="true"/>
      <question>
        <linkId value="FamilyHistory.date.value"/>
        <text value="When history was captured/updated"/>
        <type value="dateTime"/>
      </question>
    </group>
    <group>
      <extension url="http://hl7.org/fhir/Profile/questionnaire-extensions#flyover">
        <valueString value="Conveys information about family history not specific to individual relations."/>
      </extension>
      <extension url="http://www.healthintersections.com.au/fhir/Profile/metadata#type">
        <valueString value="string"/>
      </extension>
      <linkId value="FamilyHistory.note"/>
      <repeats value="true"/>
      <question>
        <linkId value="FamilyHistory.note.value"/>
        <text value="Additional details not covered elsewhere"/>
        <type value="string"/>
      </question>
    </group>
    <group>
      <extension url="http://hl7.org/fhir/Profile/questionnaire-extensions#flyover">
        <valueString value="The related person. Each FamilyHistory resource contains the entire family history for a single person."/>
      </extension>
      <linkId value="FamilyHistory.relation"/>
      <title value="Relative described by history"/>
      <repeats value="true"/>
      <group>
        <extension url="http://hl7.org/fhir/Profile/questionnaire-extensions#flyover">
          <valueString value="unique id for the element within a resource (for internal references)."/>
        </extension>
        <extension url="http://www.healthintersections.com.au/fhir/Profile/metadata#type">
          <valueString value="string"/>
        </extension>
        <linkId value="FamilyHistory.relation.id"/>
        <repeats value="true"/>
        <question>
          <linkId value="FamilyHistory.relation.id.value"/>
          <text value="xml:id (or equivalent in JSON)"/>
          <type value="string"/>
        </question>
      </group>
      <group>
        <extension url="http://hl7.org/fhir/Profile/questionnaire-extensions#flyover">
          <valueString value="This will either be a name or a description.  E.g. &quot;Aunt Susan&quot;, &quot;my cousin with the red hair&quot;."/>
        </extension>
        <extension url="http://www.healthintersections.com.au/fhir/Profile/metadata#type">
          <valueString value="string"/>
        </extension>
        <linkId value="FamilyHistory.relation.name"/>
        <repeats value="true"/>
        <question>
          <linkId value="FamilyHistory.relation.name.value"/>
          <text value="The family member described"/>
          <type value="string"/>
        </question>
      </group>
      <group>
        <extension url="http://hl7.org/fhir/Profile/questionnaire-extensions#flyover">
          <valueString value="The type of relationship this person has to the patient (father, mother, brother etc.)."/>
        </extension>
        <extension url="http://www.healthintersections.com.au/fhir/Profile/metadata#type">
          <valueString value="CodeableConcept"/>
        </extension>
        <linkId value="FamilyHistory.relation.relationship"/>
        <text value="Relationship to the subject"/>
        <required value="true"/>
        <repeats value="true"/>
        <question>
          <linkId value="FamilyHistory.relation.relationship.coding"/>
          <text value="code:"/>
          <type value="open-choice"/>
        </question>
        <question>
          <linkId value="FamilyHistory.relation.relationship.text"/>
          <text value="text:"/>
          <type value="string"/>
        </question>
      </group>
      <group>
        <extension url="http://hl7.org/fhir/Profile/questionnaire-extensions#flyover">
          <valueString value="The actual or approximate date of birth of the relative."/>
        </extension>
        <linkId value="FamilyHistory.relation.born[x]"/>
        <text value="(approximate) date of birth"/>
        <repeats value="true"/>
        <question>
          <linkId value="FamilyHistory.relation.born[x]._type"/>
          <text value="type"/>
          <type value="choice"/>
          <options>
            <reference value="#vs2"/>
          </options>
          <group>
            <extension url="http://www.healthintersections.com.au/fhir/Profile/metadata#type">
              <valueString value="Period"/>
            </extension>
            <linkId value="FamilyHistory.relation.born[x]._Period"/>
            <text value="Period"/>
            <question>
              <linkId value="FamilyHistory.relation.born[x]._Period.low"/>
              <text value="start:"/>
              <type value="dateTime"/>
            </question>
            <question>
              <linkId value="FamilyHistory.relation.born[x]._Period.end"/>
              <text value="end:"/>
              <type value="dateTime"/>
            </question>
          </group>
          <group>
            <extension url="http://www.healthintersections.com.au/fhir/Profile/metadata#type">
              <valueString value="datetime"/>
            </extension>
            <linkId value="FamilyHistory.relation.born[x]._date"/>
            <question>
              <linkId value="FamilyHistory.relation.born[x]._date.value"/>
              <text value="date"/>
              <type value="dateTime"/>
            </question>
          </group>
          <group>
            <extension url="http://www.healthintersections.com.au/fhir/Profile/metadata#type">
              <valueString value="string"/>
            </extension>
            <linkId value="FamilyHistory.relation.born[x]._string"/>
            <question>
              <linkId value="FamilyHistory.relation.born[x]._string.value"/>
              <text value="string"/>
              <type value="string"/>
            </question>
          </group>
        </question>
      </group>
      <group>
        <extension url="http://hl7.org/fhir/Profile/questionnaire-extensions#flyover">
          <valueString value="The actual or approximate age of the relative at the time the family history is recorded."/>
        </extension>
        <linkId value="FamilyHistory.relation.age[x]"/>
        <text value="(approximate) age"/>
        <repeats value="true"/>
        <question>
          <linkId value="FamilyHistory.relation.age[x]._type"/>
          <text value="type"/>
          <type value="choice"/>
          <options>
            <reference value="#vs3"/>
          </options>
          <group>
            <extension url="http://www.healthintersections.com.au/fhir/Profile/metadata#type">
              <valueString value="Age"/>
            </extension>
            <linkId value="FamilyHistory.relation.age[x]._Age"/>
            <text value="Age"/>
            <question>
              <linkId value="FamilyHistory.relation.age[x]._Age.comparator"/>
              <text value="comp:"/>
              <type value="choice"/>
            </question>
            <question>
              <linkId value="FamilyHistory.relation.age[x]._Age.value"/>
              <text value="value:"/>
              <type value="decimal"/>
            </question>
            <question>
              <linkId value="FamilyHistory.relation.age[x]._Age.units"/>
              <text value="units:"/>
              <type value="choice"/>
            </question>
          </group>
          <group>
            <extension url="http://www.healthintersections.com.au/fhir/Profile/metadata#type">
              <valueString value="Range"/>
            </extension>
            <linkId value="FamilyHistory.relation.age[x]._Range"/>
            <text value="Range"/>
            <question>
              <linkId value="FamilyHistory.relation.age[x]._Range.low"/>
              <text value="low:"/>
              <type value="decimal"/>
            </question>
            <question>
              <linkId value="FamilyHistory.relation.age[x]._Range.high"/>
              <text value="high:"/>
              <type value="decimal"/>
            </question>
            <question>
              <linkId value="FamilyHistory.relation.age[x]._Range.units"/>
              <text value="units:"/>
              <type value="string"/>
            </question>
          </group>
          <group>
            <extension url="http://www.healthintersections.com.au/fhir/Profile/metadata#type">
              <valueString value="string"/>
            </extension>
            <linkId value="FamilyHistory.relation.age[x]._string"/>
            <question>
              <linkId value="FamilyHistory.relation.age[x]._string.value"/>
              <text value="string"/>
              <type value="string"/>
            </question>
          </group>
        </question>
      </group>
      <group>
        <extension url="http://hl7.org/fhir/Profile/questionnaire-extensions#flyover">
          <valueString value="If this resource is indicating that the related person is deceased, then an indicator of whether the person is deceased (yes) or not (no) or the age or age range or description of age at death - can be indicated here. If the reason for death is known, then it can be indicated in the outcome code of the condition - in this case the deceased property should still be set."/>
        </extension>
        <linkId value="FamilyHistory.relation.deceased[x]"/>
        <text value="Dead? How old/when?"/>
        <repeats value="true"/>
        <question>
          <linkId value="FamilyHistory.relation.deceased[x]._type"/>
          <text value="type"/>
          <type value="choice"/>
          <options>
            <reference value="#vs4"/>
          </options>
          <group>
            <extension url="http://www.healthintersections.com.au/fhir/Profile/metadata#type">
              <valueString value="boolean"/>
            </extension>
            <linkId value="FamilyHistory.relation.deceased[x]._boolean"/>
            <question>
              <linkId value="FamilyHistory.relation.deceased[x]._boolean.value"/>
              <text value="boolean"/>
              <type value="boolean"/>
            </question>
          </group>
          <group>
            <extension url="http://www.healthintersections.com.au/fhir/Profile/metadata#type">
              <valueString value="Age"/>
            </extension>
            <linkId value="FamilyHistory.relation.deceased[x]._Age"/>
            <text value="Age"/>
            <question>
              <linkId value="FamilyHistory.relation.deceased[x]._Age.comparator"/>
              <text value="comp:"/>
              <type value="choice"/>
            </question>
            <question>
              <linkId value="FamilyHistory.relation.deceased[x]._Age.value"/>
              <text value="value:"/>
              <type value="decimal"/>
            </question>
            <question>
              <linkId value="FamilyHistory.relation.deceased[x]._Age.units"/>
              <text value="units:"/>
              <type value="choice"/>
            </question>
          </group>
          <group>
            <extension url="http://www.healthintersections.com.au/fhir/Profile/metadata#type">
              <valueString value="Range"/>
            </extension>
            <linkId value="FamilyHistory.relation.deceased[x]._Range"/>
            <text value="Range"/>
            <question>
              <linkId value="FamilyHistory.relation.deceased[x]._Range.low"/>
              <text value="low:"/>
              <type value="decimal"/>
            </question>
            <question>
              <linkId value="FamilyHistory.relation.deceased[x]._Range.high"/>
              <text value="high:"/>
              <type value="decimal"/>
            </question>
            <question>
              <linkId value="FamilyHistory.relation.deceased[x]._Range.units"/>
              <text value="units:"/>
              <type value="string"/>
            </question>
          </group>
          <group>
            <extension url="http://www.healthintersections.com.au/fhir/Profile/metadata#type">
              <valueString value="datetime"/>
            </extension>
            <linkId value="FamilyHistory.relation.deceased[x]._date"/>
            <question>
              <linkId value="FamilyHistory.relation.deceased[x]._date.value"/>
              <text value="date"/>
              <type value="dateTime"/>
            </question>
          </group>
          <group>
            <extension url="http://www.healthintersections.com.au/fhir/Profile/metadata#type">
              <valueString value="string"/>
            </extension>
            <linkId value="FamilyHistory.relation.deceased[x]._string"/>
            <question>
              <linkId value="FamilyHistory.relation.deceased[x]._string.value"/>
              <text value="string"/>
              <type value="string"/>
            </question>
          </group>
        </question>
      </group>
      <group>
        <extension url="http://hl7.org/fhir/Profile/questionnaire-extensions#flyover">
          <valueString value="This property allows a non condition-specific note to the made about the related person. Ideally, the note would be in the condition property, but this is not always possible."/>
        </extension>
        <extension url="http://www.healthintersections.com.au/fhir/Profile/metadata#type">
          <valueString value="string"/>
        </extension>
        <linkId value="FamilyHistory.relation.note"/>
        <repeats value="true"/>
        <question>
          <linkId value="FamilyHistory.relation.note.value"/>
          <text value="General note about related person"/>
          <type value="string"/>
        </question>
      </group>
      <group>
        <extension url="http://hl7.org/fhir/Profile/questionnaire-extensions#flyover">
          <valueString value="The significant Conditions (or condition) that the family member had. This is a repeating section to allow a system to represent more than one condition per resource, though there is nothing stopping multiple resources - one per condition."/>
        </extension>
        <linkId value="FamilyHistory.relation.condition"/>
        <title value="Condition that the related person had"/>
        <repeats value="true"/>
        <group>
          <extension url="http://hl7.org/fhir/Profile/questionnaire-extensions#flyover">
            <valueString value="unique id for the element within a resource (for internal references)."/>
          </extension>
          <extension url="http://www.healthintersections.com.au/fhir/Profile/metadata#type">
            <valueString value="string"/>
          </extension>
          <linkId value="FamilyHistory.relation.condition.id"/>
          <repeats value="true"/>
          <question>
            <linkId value="FamilyHistory.relation.condition.id.value"/>
            <text value="xml:id (or equivalent in JSON)"/>
            <type value="string"/>
          </question>
        </group>
        <group>
          <extension url="http://hl7.org/fhir/Profile/questionnaire-extensions#flyover">
            <valueString value="The actual condition specified. Could be a coded condition (like MI or Diabetes) or a less specific string like &#39;cancer&#39; depending on how much is known about the condition and the capabilities of the creating system."/>
          </extension>
          <extension url="http://www.healthintersections.com.au/fhir/Profile/metadata#type">
            <valueString value="CodeableConcept"/>
          </extension>
          <linkId value="FamilyHistory.relation.condition.type"/>
          <text value="Condition suffered by relation"/>
          <required value="true"/>
          <repeats value="true"/>
          <question>
            <linkId value="FamilyHistory.relation.condition.type.coding"/>
            <text value="code:"/>
            <type value="open-choice"/>
          </question>
          <question>
            <linkId value="FamilyHistory.relation.condition.type.text"/>
            <text value="text:"/>
            <type value="string"/>
          </question>
        </group>
        <group>
          <extension url="http://hl7.org/fhir/Profile/questionnaire-extensions#flyover">
            <valueString value="Indicates what happened as a result of this condition.  If the condition resulted in death, deceased date is captured on the relation."/>
          </extension>
          <extension url="http://www.healthintersections.com.au/fhir/Profile/metadata#type">
            <valueString value="CodeableConcept"/>
          </extension>
          <linkId value="FamilyHistory.relation.condition.outcome"/>
          <text value="deceased | permanent disability | etc."/>
          <repeats value="true"/>
          <question>
            <linkId value="FamilyHistory.relation.condition.outcome.coding"/>
            <text value="code:"/>
            <type value="open-choice"/>
          </question>
          <question>
            <linkId value="FamilyHistory.relation.condition.outcome.text"/>
            <text value="text:"/>
            <type value="string"/>
          </question>
        </group>
        <group>
          <extension url="http://hl7.org/fhir/Profile/questionnaire-extensions#flyover">
            <valueString value="Either the age of onset, range of approximate age or descriptive string can be recorded.  For conditions with multiple occurrences, this describes the first known occurrence."/>
          </extension>
          <linkId value="FamilyHistory.relation.condition.onset[x]"/>
          <text value="When condition first manifested"/>
          <repeats value="true"/>
          <question>
            <linkId value="FamilyHistory.relation.condition.onset[x]._type"/>
            <text value="type"/>
            <type value="choice"/>
            <options>
              <reference value="#vs5"/>
            </options>
            <group>
              <extension url="http://www.healthintersections.com.au/fhir/Profile/metadata#type">
                <valueString value="Age"/>
              </extension>
              <linkId value="FamilyHistory.relation.condition.onset[x]._Age"/>
              <text value="Age"/>
              <question>
                <linkId value="FamilyHistory.relation.condition.onset[x]._Age.comparator"/>
                <text value="comp:"/>
                <type value="choice"/>
              </question>
              <question>
                <linkId value="FamilyHistory.relation.condition.onset[x]._Age.value"/>
                <text value="value:"/>
                <type value="decimal"/>
              </question>
              <question>
                <linkId value="FamilyHistory.relation.condition.onset[x]._Age.units"/>
                <text value="units:"/>
                <type value="choice"/>
              </question>
            </group>
            <group>
              <extension url="http://www.healthintersections.com.au/fhir/Profile/metadata#type">
                <valueString value="Range"/>
              </extension>
              <linkId value="FamilyHistory.relation.condition.onset[x]._Range"/>
              <text value="Range"/>
              <question>
                <linkId value="FamilyHistory.relation.condition.onset[x]._Range.low"/>
                <text value="low:"/>
                <type value="decimal"/>
              </question>
              <question>
                <linkId value="FamilyHistory.relation.condition.onset[x]._Range.high"/>
                <text value="high:"/>
                <type value="decimal"/>
              </question>
              <question>
                <linkId value="FamilyHistory.relation.condition.onset[x]._Range.units"/>
                <text value="units:"/>
                <type value="string"/>
              </question>
            </group>
            <group>
              <extension url="http://www.healthintersections.com.au/fhir/Profile/metadata#type">
                <valueString value="string"/>
              </extension>
              <linkId value="FamilyHistory.relation.condition.onset[x]._string"/>
              <question>
                <linkId value="FamilyHistory.relation.condition.onset[x]._string.value"/>
                <text value="string"/>
                <type value="string"/>
              </question>
            </group>
          </question>
        </group>
        <group>
          <extension url="http://hl7.org/fhir/Profile/questionnaire-extensions#flyover">
            <valueString value="An area where general notes can be placed about this specific condition."/>
          </extension>
          <extension url="http://www.healthintersections.com.au/fhir/Profile/metadata#type">
            <valueString value="string"/>
          </extension>
          <linkId value="FamilyHistory.relation.condition.note"/>
          <repeats value="true"/>
          <question>
            <linkId value="FamilyHistory.relation.condition.note.value"/>
            <text value="Extra information about condition"/>
            <type value="string"/>
          </question>
        </group>
      </group>
    </group>
  </group>
</Questionnaire>