<?xml version="1.0" encoding="UTF-8"?>

<Questionnaire xmlns="http://hl7.org/fhir">
  <id value="qs1"/>
  <contained>
    <ValueSet>
      <id value="vs2"/>
      <identifier value="urn:uuid:4630ad2b-c826-448b-bf67-5003a7413211"/>
      <name value="Type options for OrderResponse.who"/>
      <description value="Type options for OrderResponse.who"/>
      <status value="active"/>
      <expansion>
        <timestamp value="2014-12-30T11:03:32+00:00"/>
        <contains>
          <system value="http://hl7.org/fhir/resource-types"/>
          <code value="Practitioner"/>
          <display value="Practitioner"/>
        </contains>
        <contains>
          <system value="http://hl7.org/fhir/resource-types"/>
          <code value="Organization"/>
          <display value="Organization"/>
        </contains>
        <contains>
          <system value="http://hl7.org/fhir/resource-types"/>
          <code value="Device"/>
          <display value="Device"/>
        </contains>
      </expansion>
    </ValueSet>
  </contained>
  <contained>
    <ValueSet>
      <id value="vs3"/>
      <identifier value="urn:uuid:f67bb10a-f23a-406e-a0b5-da55dfe33ca2"/>
      <name value="Type options for OrderResponse.authority[x]"/>
      <description value="Type options for OrderResponse.authority[x]"/>
      <status value="active"/>
      <expansion>
        <timestamp value="2014-12-30T11:03:32+00:00"/>
        <contains>
          <system value="http://hl7.org/fhir/data-types"/>
          <code value="CodeableConcept"/>
          <display value="CodeableConcept"/>
        </contains>
        <contains>
          <system value="http://hl7.org/fhir/resource-types"/>
          <code value="Any"/>
          <display value="Any"/>
        </contains>
      </expansion>
    </ValueSet>
  </contained>
  <identifier>
    <system value="urn:ietf:rfc:3986"/>
  </identifier>
  <status value="draft"/>
  <date value="2014-12-30T10:55:31"/>
  <publisher value="HL7 FHIR Project (Orders and Observations)"/>
  <group>
    <extension url="http://hl7.org/fhir/Profile/questionnaire-extensions#flyover">
      <valueString value="A response to an order."/>
    </extension>
    <linkId value="OrderResponse"/>
    <title value="A response to an order"/>
    <text value="There might be more than one response to an order."/>
    <required value="true"/>
    <group>
      <extension url="http://hl7.org/fhir/Profile/questionnaire-extensions#flyover">
        <valueString value="The logical id of the resource, as used in the url for the resoure. Once assigned, this value never changes. The only time that a resource does not have an id is when it is being submitted to the server using a create operation. Bundles always have an id, though it is usually a generated UUID."/>
      </extension>
      <extension url="http://www.healthintersections.com.au/fhir/Profile/metadata#type">
        <valueString value="string"/>
      </extension>
      <linkId value="OrderResponse.id"/>
      <repeats value="true"/>
      <question>
        <linkId value="OrderResponse.id.value"/>
        <text value="Logical id of this artefact"/>
        <type value="string"/>
      </question>
    </group>
    <group>
      <extension url="http://hl7.org/fhir/Profile/questionnaire-extensions#flyover">
        <valueString value="The metadata about the resource. This is content that is maintained by the infrastructure. Changes to the content may not always be associated with version changes to the resource."/>
      </extension>
      <linkId value="OrderResponse.meta"/>
      <title value="Metadata about the resource"/>
      <group>
        <extension url="http://hl7.org/fhir/Profile/questionnaire-extensions#flyover">
          <valueString value="unique id for the element within a resource (for internal references)."/>
        </extension>
        <extension url="http://www.healthintersections.com.au/fhir/Profile/metadata#type">
          <valueString value="string"/>
        </extension>
        <linkId value="OrderResponse.meta.id"/>
        <repeats value="true"/>
        <question>
          <linkId value="OrderResponse.meta.id.value"/>
          <text value="xml:id (or equivalent in JSON)"/>
          <type value="string"/>
        </question>
      </group>
      <group>
        <extension url="http://hl7.org/fhir/Profile/questionnaire-extensions#flyover">
          <valueString value="The version specific identifier, as it appears in the version portion of the url. This values changes when the resource is created, updated, or deleted. The server assigns this value, and ignores what the client specifies, except in the case that the server is imposing version integrity on updates/deletes."/>
        </extension>
        <extension url="http://www.healthintersections.com.au/fhir/Profile/metadata#type">
          <valueString value="string"/>
        </extension>
        <linkId value="OrderResponse.meta.versionId"/>
        <repeats value="true"/>
        <question>
          <linkId value="OrderResponse.meta.versionId.value"/>
          <text value="Version specific identifier"/>
          <type value="string"/>
        </question>
      </group>
      <group>
        <extension url="http://hl7.org/fhir/Profile/questionnaire-extensions#flyover">
          <valueString value="When the resource last changed - e.g. when the version changed. This value is always populated except when the resource is first being created. The server / resource manager sets this value; what a client provides is irrelevant."/>
        </extension>
        <extension url="http://www.healthintersections.com.au/fhir/Profile/metadata#type">
          <valueString value="instant"/>
        </extension>
        <linkId value="OrderResponse.meta.lastUpdated"/>
        <repeats value="true"/>
        <question>
          <linkId value="OrderResponse.meta.lastUpdated.value"/>
          <text value="When the resource version last changed"/>
          <type value="instant"/>
        </question>
      </group>
      <group>
        <extension url="http://hl7.org/fhir/Profile/questionnaire-extensions#flyover">
          <valueString value="A list of profiles that this resource claims to conform to. The URL is a reference to Profile.url. It is up to the server and/or other infrastruture of policy to determine whether/how these claims are verified and/or updated over tiem."/>
        </extension>
        <extension url="http://www.healthintersections.com.au/fhir/Profile/metadata#type">
          <valueString value="uri"/>
        </extension>
        <linkId value="OrderResponse.meta.profile"/>
        <repeats value="true"/>
        <question>
          <linkId value="OrderResponse.meta.profile.value"/>
          <text value="Profiles this resource claims to conform to"/>
          <type value="string"/>
        </question>
      </group>
      <group>
        <extension url="http://hl7.org/fhir/Profile/questionnaire-extensions#flyover">
          <valueString value="Security labels applied to this resource. These tags connect specific resources to the overall security policy and infrastructure. The security labels can be updated without changing the stated version of the resource."/>
        </extension>
        <extension url="http://www.healthintersections.com.au/fhir/Profile/metadata#type">
          <valueString value="Coding"/>
        </extension>
        <linkId value="OrderResponse.meta.security"/>
        <repeats value="true"/>
        <question>
          <linkId value="OrderResponse.meta.security.value"/>
          <text value="Security Labels applied to this resource"/>
          <type value="open-choice"/>
        </question>
      </group>
      <group>
        <extension url="http://hl7.org/fhir/Profile/questionnaire-extensions#flyover">
          <valueString value="Tags applied to this resource. Tags are intended to to be used to identify and relate resources to process and workflow, and applications are not required to consider the tags when interpreting the meaning of a resource. The tags can be updated without changing the stated version of the resource."/>
        </extension>
        <extension url="http://www.healthintersections.com.au/fhir/Profile/metadata#type">
          <valueString value="Coding"/>
        </extension>
        <linkId value="OrderResponse.meta.tag"/>
        <repeats value="true"/>
        <question>
          <linkId value="OrderResponse.meta.tag.value"/>
          <text value="Tags applied"/>
          <type value="open-choice"/>
        </question>
      </group>
    </group>
    <group>
      <extension url="http://hl7.org/fhir/Profile/questionnaire-extensions#flyover">
        <valueString value="A reference to a set of rules that were followed when the resource was constructed, and which must be understood when processing the content. Asserting this rule set restricts the content to be only understood by a limited set of trading partners. This inherently limits the usefulness of the data in the long term. However the existing health eco-system is highly fractured, and not yet ready to define, collect, and exchange data in a generally computable sense. Wherever possible, implementers and/or specification writers should avoid using this element as much as possible."/>
      </extension>
      <extension url="http://www.healthintersections.com.au/fhir/Profile/metadata#type">
        <valueString value="uri"/>
      </extension>
      <linkId value="OrderResponse.implicitRules"/>
      <repeats value="true"/>
      <question>
        <linkId value="OrderResponse.implicitRules.value"/>
        <text value="A set of rules under which this content was created"/>
        <type value="string"/>
      </question>
    </group>
    <group>
      <extension url="http://hl7.org/fhir/Profile/questionnaire-extensions#flyover">
        <valueString value="The base language in which the resource is written. Language is provided to support indexing and accessibility (typically, services such as text to speech use the language tag). The html language tag in the narrative applies  to the narrative. The language tag on the resource may be used to specify the language of other presentations generated from the data in the resource

Not all the content has to be in the base language. The Resource.language should not be assumed to apply to the narrative automatically. If a language is specified, it should it also be specified on the div element in the html (see rules in HTML5 for information about the relationship between xml:lang and the html lang attribute)."/>
      </extension>
      <extension url="http://www.healthintersections.com.au/fhir/Profile/metadata#type">
        <valueString value="code"/>
      </extension>
      <linkId value="OrderResponse.language"/>
      <repeats value="true"/>
      <question>
        <linkId value="OrderResponse.language.value"/>
        <text value="language"/>
        <type value="choice"/>
      </question>
    </group>
    <group>
      <extension url="http://hl7.org/fhir/Profile/questionnaire-extensions#flyover">
        <valueString value="A human-readable narrative that contains a summary of the resource, and may be used to represent the content of the resource to a human. The narrative need not encode all the structured data, but is required to contain sufficient detail to make it &quot;clinically safe&quot; for a human to just read the narrative. Resource definitions may define what content should be represented in the narrative to ensure clinical safety. Contained resources do not have narrative. Resources that are not contained SHOULD have a narrative."/>
      </extension>
      <linkId value="OrderResponse.text"/>
      <text value="Text summary of the resource, for human interpretation"/>
      <repeats value="true"/>
    </group>
    <group>
      <extension url="http://hl7.org/fhir/Profile/questionnaire-extensions#flyover">
        <valueString value="These resources do not have an independent existence apart from the resource that contains them - they cannot be identified independently, and nor can they have their own independent transaction scope. This should never be done when the content can be identified properly, as once identification is lost, it is extremely difficult (and context dependent) to restore it again."/>
      </extension>
      <linkId value="OrderResponse.contained"/>
      <text value="Contained, inline Resources"/>
      <repeats value="true"/>
    </group>
    <group>
      <extension url="http://hl7.org/fhir/Profile/questionnaire-extensions#flyover">
        <valueString value="Identifiers assigned to this order. The identifiers are usually assigned by the system responding to the order, but they may be provided or added to by other systems."/>
      </extension>
      <extension url="http://www.healthintersections.com.au/fhir/Profile/metadata#type">
        <valueString value="Identifier"/>
      </extension>
      <linkId value="OrderResponse.identifier"/>
      <text value="Identifiers assigned to this order by the orderer or by the receiver"/>
      <repeats value="true"/>
      <question>
        <linkId value="OrderResponse.identifier.label"/>
        <text value="label:"/>
        <type value="string"/>
      </question>
      <question>
        <linkId value="OrderResponse.identifier.system"/>
        <text value="system:"/>
        <type value="string"/>
      </question>
      <question>
        <linkId value="OrderResponse.identifier.value"/>
        <text value="value:"/>
        <type value="string"/>
      </question>
    </group>
    <group>
      <extension url="http://hl7.org/fhir/Profile/questionnaire-extensions#flyover">
        <valueString value="A reference to the order that this is in response to."/>
      </extension>
      <extension url="http://www.healthintersections.com.au/fhir/Profile/metadata#type">
        <valueString value="Reference"/>
      </extension>
      <linkId value="OrderResponse.request"/>
      <required value="true"/>
      <repeats value="true"/>
      <question>
        <extension url="http://www.healthintersections.com.au/fhir/Profile/metadata#reference">
          <valueString value="/Order?subject=$subj&amp;patient=$subj&amp;encounter=$encounter"/>
        </extension>
        <linkId value="OrderResponse.request.value"/>
        <text value="The order that this is a response to"/>
        <type value="reference"/>
      </question>
    </group>
    <group>
      <extension url="http://hl7.org/fhir/Profile/questionnaire-extensions#flyover">
        <valueString value="The date and time at which this order response was made (created/posted)."/>
      </extension>
      <extension url="http://www.healthintersections.com.au/fhir/Profile/metadata#type">
        <valueString value="datetime"/>
      </extension>
      <linkId value="OrderResponse.date"/>
      <repeats value="true"/>
      <question>
        <linkId value="OrderResponse.date.value"/>
        <text value="When the response was made"/>
        <type value="dateTime"/>
      </question>
    </group>
    <group>
      <extension url="http://hl7.org/fhir/Profile/questionnaire-extensions#flyover">
        <valueString value="The person, organization, or device credited with making the response."/>
      </extension>
      <linkId value="OrderResponse.who"/>
      <text value="Who made the response"/>
      <repeats value="true"/>
      <question>
        <linkId value="OrderResponse.who._type"/>
        <text value="type"/>
        <type value="choice"/>
        <options>
          <reference value="#vs2"/>
        </options>
        <group>
          <extension url="http://www.healthintersections.com.au/fhir/Profile/metadata#type">
            <valueString value="Reference"/>
          </extension>
          <linkId value="OrderResponse.who._Practitioner"/>
          <question>
            <extension url="http://www.healthintersections.com.au/fhir/Profile/metadata#reference">
              <valueString value="/Practitioner?subject=$subj&amp;patient=$subj&amp;encounter=$encounter"/>
            </extension>
            <linkId value="OrderResponse.who._Practitioner.value"/>
            <text value="Practitioner"/>
            <type value="reference"/>
          </question>
        </group>
        <group>
          <extension url="http://www.healthintersections.com.au/fhir/Profile/metadata#type">
            <valueString value="Reference"/>
          </extension>
          <linkId value="OrderResponse.who._Organization"/>
          <question>
            <extension url="http://www.healthintersections.com.au/fhir/Profile/metadata#reference">
              <valueString value="/Organization?subject=$subj&amp;patient=$subj&amp;encounter=$encounter"/>
            </extension>
            <linkId value="OrderResponse.who._Organization.value"/>
            <text value="Organization"/>
            <type value="reference"/>
          </question>
        </group>
        <group>
          <extension url="http://www.healthintersections.com.au/fhir/Profile/metadata#type">
            <valueString value="Reference"/>
          </extension>
          <linkId value="OrderResponse.who._Device"/>
          <question>
            <extension url="http://www.healthintersections.com.au/fhir/Profile/metadata#reference">
              <valueString value="/Device?subject=$subj&amp;patient=$subj&amp;encounter=$encounter"/>
            </extension>
            <linkId value="OrderResponse.who._Device.value"/>
            <text value="Device"/>
            <type value="reference"/>
          </question>
        </group>
      </question>
    </group>
    <group>
      <extension url="http://hl7.org/fhir/Profile/questionnaire-extensions#flyover">
        <valueString value="A reference to an authority policy that is the reason for the response. Usually this is used when the order is rejected, to provide a reason for rejection. Reference will be constrained when suitable targets exist."/>
      </extension>
      <linkId value="OrderResponse.authority[x]"/>
      <text value="If required by policy"/>
      <repeats value="true"/>
      <question>
        <linkId value="OrderResponse.authority[x]._type"/>
        <text value="type"/>
        <type value="choice"/>
        <options>
          <reference value="#vs3"/>
        </options>
        <group>
          <extension url="http://www.healthintersections.com.au/fhir/Profile/metadata#type">
            <valueString value="CodeableConcept"/>
          </extension>
          <linkId value="OrderResponse.authority[x]._CodeableConcept"/>
          <text value="CodeableConcept"/>
          <question>
            <linkId value="OrderResponse.authority[x]._CodeableConcept.coding"/>
            <text value="code:"/>
            <type value="open-choice"/>
          </question>
          <question>
            <linkId value="OrderResponse.authority[x]._CodeableConcept.text"/>
            <text value="text:"/>
            <type value="string"/>
          </question>
        </group>
        <group>
          <extension url="http://www.healthintersections.com.au/fhir/Profile/metadata#type">
            <valueString value="Reference"/>
          </extension>
          <linkId value="OrderResponse.authority[x]._Any"/>
          <question>
            <extension url="http://www.healthintersections.com.au/fhir/Profile/metadata#reference">
              <valueString value="/_search?subject=$subj&amp;patient=$subj&amp;encounter=$encounter"/>
            </extension>
            <linkId value="OrderResponse.authority[x]._Any.value"/>
            <text value="Any"/>
            <type value="reference"/>
          </question>
        </group>
      </question>
    </group>
    <group>
      <extension url="http://hl7.org/fhir/Profile/questionnaire-extensions#flyover">
        <valueString value="What this response says about the status of the original order."/>
      </extension>
      <extension url="http://www.healthintersections.com.au/fhir/Profile/metadata#type">
        <valueString value="code"/>
      </extension>
      <linkId value="OrderResponse.code"/>
      <required value="true"/>
      <repeats value="true"/>
      <question>
        <linkId value="OrderResponse.code.value"/>
        <text value="code"/>
        <type value="choice"/>
      </question>
    </group>
    <group>
      <extension url="http://hl7.org/fhir/Profile/questionnaire-extensions#flyover">
        <valueString value="Additional description about the response - e.g. a text description provided by a human user when making decisions about the order."/>
      </extension>
      <extension url="http://www.healthintersections.com.au/fhir/Profile/metadata#type">
        <valueString value="string"/>
      </extension>
      <linkId value="OrderResponse.description"/>
      <repeats value="true"/>
      <question>
        <linkId value="OrderResponse.description.value"/>
        <text value="Additional description of the response"/>
        <type value="string"/>
      </question>
    </group>
    <group>
      <extension url="http://hl7.org/fhir/Profile/questionnaire-extensions#flyover">
        <valueString value="Links to resources that provide details of the outcome of performing the order. E.g. Diagnostic Reports in a response that is made to an order that referenced a diagnostic order."/>
      </extension>
      <extension url="http://www.healthintersections.com.au/fhir/Profile/metadata#type">
        <valueString value="Reference"/>
      </extension>
      <linkId value="OrderResponse.fulfillment"/>
      <repeats value="true"/>
      <question>
        <extension url="http://www.healthintersections.com.au/fhir/Profile/metadata#reference">
          <valueString value="/_search?subject=$subj&amp;patient=$subj&amp;encounter=$encounter"/>
        </extension>
        <linkId value="OrderResponse.fulfillment.value"/>
        <text value="Details of the outcome of performing the order"/>
        <type value="reference"/>
      </question>
    </group>
  </group>
</Questionnaire>