<?xml version="1.0" encoding="UTF-8"?>

<Questionnaire xmlns="http://hl7.org/fhir">
  <id value="qs1"/>
  <contained>
    <ValueSet>
      <id value="vs2"/>
      <identifier value="urn:uuid:28d6a02b-cbb0-45df-9fb9-85fc0fa69249"/>
      <name value="Type options for RiskAssessment.subject"/>
      <description value="Type options for RiskAssessment.subject"/>
      <status value="active"/>
      <expansion>
        <timestamp value="2014-12-30T11:06:29+00:00"/>
        <contains>
          <system value="http://hl7.org/fhir/resource-types"/>
          <code value="Patient"/>
          <display value="Patient"/>
        </contains>
        <contains>
          <system value="http://hl7.org/fhir/resource-types"/>
          <code value="Group"/>
          <display value="Group"/>
        </contains>
      </expansion>
    </ValueSet>
  </contained>
  <contained>
    <ValueSet>
      <id value="vs3"/>
      <identifier value="urn:uuid:8afe2988-6e65-4078-8c27-c7c8140bd016"/>
      <name value="Type options for RiskAssessment.performer"/>
      <description value="Type options for RiskAssessment.performer"/>
      <status value="active"/>
      <expansion>
        <timestamp value="2014-12-30T11:06:29+00:00"/>
        <contains>
          <system value="http://hl7.org/fhir/resource-types"/>
          <code value="Practitioner"/>
          <display value="Practitioner"/>
        </contains>
        <contains>
          <system value="http://hl7.org/fhir/resource-types"/>
          <code value="Device"/>
          <display value="Device"/>
        </contains>
      </expansion>
    </ValueSet>
  </contained>
  <contained>
    <ValueSet>
      <id value="vs4"/>
      <identifier value="urn:uuid:cda40a5a-17f4-4381-a21e-c43ea0936da6"/>
      <name value="Type options for RiskAssessment.prediction.probability[x]"/>
      <description value="Type options for RiskAssessment.prediction.probability[x]"/>
      <status value="active"/>
      <expansion>
        <timestamp value="2014-12-30T11:06:29+00:00"/>
        <contains>
          <system value="http://hl7.org/fhir/data-types"/>
          <code value="decimal"/>
          <display value="decimal"/>
        </contains>
        <contains>
          <system value="http://hl7.org/fhir/data-types"/>
          <code value="Range"/>
          <display value="Range"/>
        </contains>
        <contains>
          <system value="http://hl7.org/fhir/data-types"/>
          <code value="CodeableConcept"/>
          <display value="CodeableConcept"/>
        </contains>
      </expansion>
    </ValueSet>
  </contained>
  <contained>
    <ValueSet>
      <id value="vs5"/>
      <identifier value="urn:uuid:2ecde516-7bba-418c-b022-817efbd6a9ea"/>
      <name value="Type options for RiskAssessment.prediction.when[x]"/>
      <description value="Type options for RiskAssessment.prediction.when[x]"/>
      <status value="active"/>
      <expansion>
        <timestamp value="2014-12-30T11:06:29+00:00"/>
        <contains>
          <system value="http://hl7.org/fhir/data-types"/>
          <code value="Period"/>
          <display value="Period"/>
        </contains>
        <contains>
          <system value="http://hl7.org/fhir/data-types"/>
          <code value="Range"/>
          <display value="Range"/>
        </contains>
      </expansion>
    </ValueSet>
  </contained>
  <identifier>
    <system value="urn:ietf:rfc:3986"/>
  </identifier>
  <status value="draft"/>
  <date value="2014-12-30T10:55:31"/>
  <publisher value="HL7 FHIR Project (Clinical Decision Support)"/>
  <group>
    <extension url="http://hl7.org/fhir/Profile/questionnaire-extensions#flyover">
      <valueString value="An assessment of the likely outcome(s) for a patient or other subject as well as the likelihood of each outcome."/>
    </extension>
    <linkId value="RiskAssessment"/>
    <title value="Potential outcomes for a subject with likelihood"/>
    <required value="true"/>
    <group>
      <extension url="http://hl7.org/fhir/Profile/questionnaire-extensions#flyover">
        <valueString value="The logical id of the resource, as used in the url for the resoure. Once assigned, this value never changes. The only time that a resource does not have an id is when it is being submitted to the server using a create operation. Bundles always have an id, though it is usually a generated UUID."/>
      </extension>
      <extension url="http://www.healthintersections.com.au/fhir/Profile/metadata#type">
        <valueString value="string"/>
      </extension>
      <linkId value="RiskAssessment.id"/>
      <repeats value="true"/>
      <question>
        <linkId value="RiskAssessment.id.value"/>
        <text value="Logical id of this artefact"/>
        <type value="string"/>
      </question>
    </group>
    <group>
      <extension url="http://hl7.org/fhir/Profile/questionnaire-extensions#flyover">
        <valueString value="The metadata about the resource. This is content that is maintained by the infrastructure. Changes to the content may not always be associated with version changes to the resource."/>
      </extension>
      <linkId value="RiskAssessment.meta"/>
      <title value="Metadata about the resource"/>
      <group>
        <extension url="http://hl7.org/fhir/Profile/questionnaire-extensions#flyover">
          <valueString value="unique id for the element within a resource (for internal references)."/>
        </extension>
        <extension url="http://www.healthintersections.com.au/fhir/Profile/metadata#type">
          <valueString value="string"/>
        </extension>
        <linkId value="RiskAssessment.meta.id"/>
        <repeats value="true"/>
        <question>
          <linkId value="RiskAssessment.meta.id.value"/>
          <text value="xml:id (or equivalent in JSON)"/>
          <type value="string"/>
        </question>
      </group>
      <group>
        <extension url="http://hl7.org/fhir/Profile/questionnaire-extensions#flyover">
          <valueString value="The version specific identifier, as it appears in the version portion of the url. This values changes when the resource is created, updated, or deleted. The server assigns this value, and ignores what the client specifies, except in the case that the server is imposing version integrity on updates/deletes."/>
        </extension>
        <extension url="http://www.healthintersections.com.au/fhir/Profile/metadata#type">
          <valueString value="string"/>
        </extension>
        <linkId value="RiskAssessment.meta.versionId"/>
        <repeats value="true"/>
        <question>
          <linkId value="RiskAssessment.meta.versionId.value"/>
          <text value="Version specific identifier"/>
          <type value="string"/>
        </question>
      </group>
      <group>
        <extension url="http://hl7.org/fhir/Profile/questionnaire-extensions#flyover">
          <valueString value="When the resource last changed - e.g. when the version changed. This value is always populated except when the resource is first being created. The server / resource manager sets this value; what a client provides is irrelevant."/>
        </extension>
        <extension url="http://www.healthintersections.com.au/fhir/Profile/metadata#type">
          <valueString value="instant"/>
        </extension>
        <linkId value="RiskAssessment.meta.lastUpdated"/>
        <repeats value="true"/>
        <question>
          <linkId value="RiskAssessment.meta.lastUpdated.value"/>
          <text value="When the resource version last changed"/>
          <type value="instant"/>
        </question>
      </group>
      <group>
        <extension url="http://hl7.org/fhir/Profile/questionnaire-extensions#flyover">
          <valueString value="A list of profiles that this resource claims to conform to. The URL is a reference to Profile.url. It is up to the server and/or other infrastruture of policy to determine whether/how these claims are verified and/or updated over tiem."/>
        </extension>
        <extension url="http://www.healthintersections.com.au/fhir/Profile/metadata#type">
          <valueString value="uri"/>
        </extension>
        <linkId value="RiskAssessment.meta.profile"/>
        <repeats value="true"/>
        <question>
          <linkId value="RiskAssessment.meta.profile.value"/>
          <text value="Profiles this resource claims to conform to"/>
          <type value="string"/>
        </question>
      </group>
      <group>
        <extension url="http://hl7.org/fhir/Profile/questionnaire-extensions#flyover">
          <valueString value="Security labels applied to this resource. These tags connect specific resources to the overall security policy and infrastructure. The security labels can be updated without changing the stated version of the resource."/>
        </extension>
        <extension url="http://www.healthintersections.com.au/fhir/Profile/metadata#type">
          <valueString value="Coding"/>
        </extension>
        <linkId value="RiskAssessment.meta.security"/>
        <repeats value="true"/>
        <question>
          <linkId value="RiskAssessment.meta.security.value"/>
          <text value="Security Labels applied to this resource"/>
          <type value="open-choice"/>
        </question>
      </group>
      <group>
        <extension url="http://hl7.org/fhir/Profile/questionnaire-extensions#flyover">
          <valueString value="Tags applied to this resource. Tags are intended to to be used to identify and relate resources to process and workflow, and applications are not required to consider the tags when interpreting the meaning of a resource. The tags can be updated without changing the stated version of the resource."/>
        </extension>
        <extension url="http://www.healthintersections.com.au/fhir/Profile/metadata#type">
          <valueString value="Coding"/>
        </extension>
        <linkId value="RiskAssessment.meta.tag"/>
        <repeats value="true"/>
        <question>
          <linkId value="RiskAssessment.meta.tag.value"/>
          <text value="Tags applied"/>
          <type value="open-choice"/>
        </question>
      </group>
    </group>
    <group>
      <extension url="http://hl7.org/fhir/Profile/questionnaire-extensions#flyover">
        <valueString value="A reference to a set of rules that were followed when the resource was constructed, and which must be understood when processing the content. Asserting this rule set restricts the content to be only understood by a limited set of trading partners. This inherently limits the usefulness of the data in the long term. However the existing health eco-system is highly fractured, and not yet ready to define, collect, and exchange data in a generally computable sense. Wherever possible, implementers and/or specification writers should avoid using this element as much as possible."/>
      </extension>
      <extension url="http://www.healthintersections.com.au/fhir/Profile/metadata#type">
        <valueString value="uri"/>
      </extension>
      <linkId value="RiskAssessment.implicitRules"/>
      <repeats value="true"/>
      <question>
        <linkId value="RiskAssessment.implicitRules.value"/>
        <text value="A set of rules under which this content was created"/>
        <type value="string"/>
      </question>
    </group>
    <group>
      <extension url="http://hl7.org/fhir/Profile/questionnaire-extensions#flyover">
        <valueString value="The base language in which the resource is written. Language is provided to support indexing and accessibility (typically, services such as text to speech use the language tag). The html language tag in the narrative applies  to the narrative. The language tag on the resource may be used to specify the language of other presentations generated from the data in the resource

Not all the content has to be in the base language. The Resource.language should not be assumed to apply to the narrative automatically. If a language is specified, it should it also be specified on the div element in the html (see rules in HTML5 for information about the relationship between xml:lang and the html lang attribute)."/>
      </extension>
      <extension url="http://www.healthintersections.com.au/fhir/Profile/metadata#type">
        <valueString value="code"/>
      </extension>
      <linkId value="RiskAssessment.language"/>
      <repeats value="true"/>
      <question>
        <linkId value="RiskAssessment.language.value"/>
        <text value="language"/>
        <type value="choice"/>
      </question>
    </group>
    <group>
      <extension url="http://hl7.org/fhir/Profile/questionnaire-extensions#flyover">
        <valueString value="A human-readable narrative that contains a summary of the resource, and may be used to represent the content of the resource to a human. The narrative need not encode all the structured data, but is required to contain sufficient detail to make it &quot;clinically safe&quot; for a human to just read the narrative. Resource definitions may define what content should be represented in the narrative to ensure clinical safety. Contained resources do not have narrative. Resources that are not contained SHOULD have a narrative."/>
      </extension>
      <linkId value="RiskAssessment.text"/>
      <text value="Text summary of the resource, for human interpretation"/>
      <repeats value="true"/>
    </group>
    <group>
      <extension url="http://hl7.org/fhir/Profile/questionnaire-extensions#flyover">
        <valueString value="These resources do not have an independent existence apart from the resource that contains them - they cannot be identified independently, and nor can they have their own independent transaction scope. This should never be done when the content can be identified properly, as once identification is lost, it is extremely difficult (and context dependent) to restore it again."/>
      </extension>
      <linkId value="RiskAssessment.contained"/>
      <text value="Contained, inline Resources"/>
      <repeats value="true"/>
    </group>
    <group>
      <extension url="http://hl7.org/fhir/Profile/questionnaire-extensions#flyover">
        <valueString value="The patient or group the risk assessment applies to."/>
      </extension>
      <linkId value="RiskAssessment.subject"/>
      <text value="Who/what does assessment apply to?"/>
      <repeats value="true"/>
      <question>
        <linkId value="RiskAssessment.subject._type"/>
        <text value="type"/>
        <type value="choice"/>
        <options>
          <reference value="#vs2"/>
        </options>
        <group>
          <extension url="http://www.healthintersections.com.au/fhir/Profile/metadata#type">
            <valueString value="Reference"/>
          </extension>
          <linkId value="RiskAssessment.subject._Patient"/>
          <question>
            <extension url="http://www.healthintersections.com.au/fhir/Profile/metadata#reference">
              <valueString value="/Patient?subject=$subj&amp;patient=$subj&amp;encounter=$encounter"/>
            </extension>
            <linkId value="RiskAssessment.subject._Patient.value"/>
            <text value="Patient"/>
            <type value="reference"/>
          </question>
        </group>
        <group>
          <extension url="http://www.healthintersections.com.au/fhir/Profile/metadata#type">
            <valueString value="Reference"/>
          </extension>
          <linkId value="RiskAssessment.subject._Group"/>
          <question>
            <extension url="http://www.healthintersections.com.au/fhir/Profile/metadata#reference">
              <valueString value="/Group?subject=$subj&amp;patient=$subj&amp;encounter=$encounter"/>
            </extension>
            <linkId value="RiskAssessment.subject._Group.value"/>
            <text value="Group"/>
            <type value="reference"/>
          </question>
        </group>
      </question>
    </group>
    <group>
      <extension url="http://hl7.org/fhir/Profile/questionnaire-extensions#flyover">
        <valueString value="The date (and possibly time) the risk assessment was performed."/>
      </extension>
      <extension url="http://www.healthintersections.com.au/fhir/Profile/metadata#type">
        <valueString value="datetime"/>
      </extension>
      <linkId value="RiskAssessment.date"/>
      <repeats value="true"/>
      <question>
        <linkId value="RiskAssessment.date.value"/>
        <text value="When was assessment made?"/>
        <type value="dateTime"/>
      </question>
    </group>
    <group>
      <extension url="http://hl7.org/fhir/Profile/questionnaire-extensions#flyover">
        <valueString value="For assessments or prognosis specific to a particular condition, indicates the condition being assessed."/>
      </extension>
      <extension url="http://www.healthintersections.com.au/fhir/Profile/metadata#type">
        <valueString value="Reference"/>
      </extension>
      <linkId value="RiskAssessment.condition"/>
      <repeats value="true"/>
      <question>
        <extension url="http://www.healthintersections.com.au/fhir/Profile/metadata#reference">
          <valueString value="/Condition?subject=$subj&amp;patient=$subj&amp;encounter=$encounter"/>
        </extension>
        <linkId value="RiskAssessment.condition.value"/>
        <text value="Condition assessed"/>
        <type value="reference"/>
      </question>
    </group>
    <group>
      <extension url="http://hl7.org/fhir/Profile/questionnaire-extensions#flyover">
        <valueString value="The provider or software application that performed the assessment."/>
      </extension>
      <linkId value="RiskAssessment.performer"/>
      <text value="Who did assessment?"/>
      <repeats value="true"/>
      <question>
        <linkId value="RiskAssessment.performer._type"/>
        <text value="type"/>
        <type value="choice"/>
        <options>
          <reference value="#vs3"/>
        </options>
        <group>
          <extension url="http://www.healthintersections.com.au/fhir/Profile/metadata#type">
            <valueString value="Reference"/>
          </extension>
          <linkId value="RiskAssessment.performer._Practitioner"/>
          <question>
            <extension url="http://www.healthintersections.com.au/fhir/Profile/metadata#reference">
              <valueString value="/Practitioner?subject=$subj&amp;patient=$subj&amp;encounter=$encounter"/>
            </extension>
            <linkId value="RiskAssessment.performer._Practitioner.value"/>
            <text value="Practitioner"/>
            <type value="reference"/>
          </question>
        </group>
        <group>
          <extension url="http://www.healthintersections.com.au/fhir/Profile/metadata#type">
            <valueString value="Reference"/>
          </extension>
          <linkId value="RiskAssessment.performer._Device"/>
          <question>
            <extension url="http://www.healthintersections.com.au/fhir/Profile/metadata#reference">
              <valueString value="/Device?subject=$subj&amp;patient=$subj&amp;encounter=$encounter"/>
            </extension>
            <linkId value="RiskAssessment.performer._Device.value"/>
            <text value="Device"/>
            <type value="reference"/>
          </question>
        </group>
      </question>
    </group>
    <group>
      <extension url="http://hl7.org/fhir/Profile/questionnaire-extensions#flyover">
        <valueString value="Business identifier assigned to the risk assessment."/>
      </extension>
      <extension url="http://www.healthintersections.com.au/fhir/Profile/metadata#type">
        <valueString value="Identifier"/>
      </extension>
      <linkId value="RiskAssessment.identifier"/>
      <text value="Unique identifier for the assessment"/>
      <repeats value="true"/>
      <question>
        <linkId value="RiskAssessment.identifier.label"/>
        <text value="label:"/>
        <type value="string"/>
      </question>
      <question>
        <linkId value="RiskAssessment.identifier.system"/>
        <text value="system:"/>
        <type value="string"/>
      </question>
      <question>
        <linkId value="RiskAssessment.identifier.value"/>
        <text value="value:"/>
        <type value="string"/>
      </question>
    </group>
    <group>
      <extension url="http://hl7.org/fhir/Profile/questionnaire-extensions#flyover">
        <valueString value="The algorithm, processs or mechanism used to evaluate the risk."/>
      </extension>
      <extension url="http://www.healthintersections.com.au/fhir/Profile/metadata#type">
        <valueString value="CodeableConcept"/>
      </extension>
      <linkId value="RiskAssessment.method"/>
      <text value="Evaluation mechanism"/>
      <repeats value="true"/>
      <question>
        <linkId value="RiskAssessment.method.coding"/>
        <text value="code:"/>
        <type value="open-choice"/>
      </question>
      <question>
        <linkId value="RiskAssessment.method.text"/>
        <text value="text:"/>
        <type value="string"/>
      </question>
    </group>
    <group>
      <extension url="http://hl7.org/fhir/Profile/questionnaire-extensions#flyover">
        <valueString value="Indicates the source data considered as part of the assessment (FamilyHistory, Observations, Procedures, Conditions, etc.)."/>
      </extension>
      <extension url="http://www.healthintersections.com.au/fhir/Profile/metadata#type">
        <valueString value="Reference"/>
      </extension>
      <linkId value="RiskAssessment.basis"/>
      <repeats value="true"/>
      <question>
        <extension url="http://www.healthintersections.com.au/fhir/Profile/metadata#reference">
          <valueString value="/_search?subject=$subj&amp;patient=$subj&amp;encounter=$encounter"/>
        </extension>
        <linkId value="RiskAssessment.basis.value"/>
        <text value="Information used in assessment"/>
        <type value="reference"/>
      </question>
    </group>
    <group>
      <extension url="http://hl7.org/fhir/Profile/questionnaire-extensions#flyover">
        <valueString value="Describes the expected outcome for the subject."/>
      </extension>
      <linkId value="RiskAssessment.prediction"/>
      <title value="Outcome predicted"/>
      <text value="Multiple repetitions can be used to identify the same type of outcome in different timeframes as well as different types of outcomes."/>
      <repeats value="true"/>
      <group>
        <extension url="http://hl7.org/fhir/Profile/questionnaire-extensions#flyover">
          <valueString value="unique id for the element within a resource (for internal references)."/>
        </extension>
        <extension url="http://www.healthintersections.com.au/fhir/Profile/metadata#type">
          <valueString value="string"/>
        </extension>
        <linkId value="RiskAssessment.prediction.id"/>
        <repeats value="true"/>
        <question>
          <linkId value="RiskAssessment.prediction.id.value"/>
          <text value="xml:id (or equivalent in JSON)"/>
          <type value="string"/>
        </question>
      </group>
      <group>
        <extension url="http://hl7.org/fhir/Profile/questionnaire-extensions#flyover">
          <valueString value="One of the potential outcomes for the patient (e.g. remission, death,  a particular condition)."/>
        </extension>
        <extension url="http://www.healthintersections.com.au/fhir/Profile/metadata#type">
          <valueString value="CodeableConcept"/>
        </extension>
        <linkId value="RiskAssessment.prediction.outcome"/>
        <text value="Possible outcome for the subject"/>
        <required value="true"/>
        <repeats value="true"/>
        <question>
          <linkId value="RiskAssessment.prediction.outcome.coding"/>
          <text value="code:"/>
          <type value="open-choice"/>
        </question>
        <question>
          <linkId value="RiskAssessment.prediction.outcome.text"/>
          <text value="text:"/>
          <type value="string"/>
        </question>
      </group>
      <group>
        <extension url="http://hl7.org/fhir/Profile/questionnaire-extensions#flyover">
          <valueString value="How likely is the outcome (in the specified timeframe). If range is used, it represents the lower and upper bounds of certainty.  E.g. 40-60%

Decimal values are expressed as percentages as well (max = 100)."/>
        </extension>
        <linkId value="RiskAssessment.prediction.probability[x]"/>
        <text value="Likelihood of specified outcome"/>
        <repeats value="true"/>
        <question>
          <linkId value="RiskAssessment.prediction.probability[x]._type"/>
          <text value="type"/>
          <type value="choice"/>
          <options>
            <reference value="#vs4"/>
          </options>
          <group>
            <extension url="http://www.healthintersections.com.au/fhir/Profile/metadata#type">
              <valueString value="decimal"/>
            </extension>
            <linkId value="RiskAssessment.prediction.probability[x]._decimal"/>
            <question>
              <linkId value="RiskAssessment.prediction.probability[x]._decimal.value"/>
              <text value="decimal"/>
              <type value="decimal"/>
            </question>
          </group>
          <group>
            <extension url="http://www.healthintersections.com.au/fhir/Profile/metadata#type">
              <valueString value="Range"/>
            </extension>
            <linkId value="RiskAssessment.prediction.probability[x]._Range"/>
            <text value="Range"/>
            <question>
              <linkId value="RiskAssessment.prediction.probability[x]._Range.low"/>
              <text value="low:"/>
              <type value="decimal"/>
            </question>
            <question>
              <linkId value="RiskAssessment.prediction.probability[x]._Range.high"/>
              <text value="high:"/>
              <type value="decimal"/>
            </question>
            <question>
              <linkId value="RiskAssessment.prediction.probability[x]._Range.units"/>
              <text value="units:"/>
              <type value="string"/>
            </question>
          </group>
          <group>
            <extension url="http://www.healthintersections.com.au/fhir/Profile/metadata#type">
              <valueString value="CodeableConcept"/>
            </extension>
            <linkId value="RiskAssessment.prediction.probability[x]._CodeableConcept"/>
            <text value="CodeableConcept"/>
            <question>
              <linkId value="RiskAssessment.prediction.probability[x]._CodeableConcept.coding"/>
              <text value="code:"/>
              <type value="open-choice"/>
            </question>
            <question>
              <linkId value="RiskAssessment.prediction.probability[x]._CodeableConcept.text"/>
              <text value="text:"/>
              <type value="string"/>
            </question>
          </group>
        </question>
      </group>
      <group>
        <extension url="http://hl7.org/fhir/Profile/questionnaire-extensions#flyover">
          <valueString value="Indicates the risk for this particular subject (with their specific characteristics) divided by the risk of the population in general.  (Numbers greater than 1 = higher risk than the population, numbers less than 1 = lower risk.)."/>
        </extension>
        <extension url="http://www.healthintersections.com.au/fhir/Profile/metadata#type">
          <valueString value="decimal"/>
        </extension>
        <linkId value="RiskAssessment.prediction.relativeRisk"/>
        <repeats value="true"/>
        <question>
          <linkId value="RiskAssessment.prediction.relativeRisk.value"/>
          <text value="Relative likelihood"/>
          <type value="decimal"/>
        </question>
      </group>
      <group>
        <extension url="http://hl7.org/fhir/Profile/questionnaire-extensions#flyover">
          <valueString value="Indicates the period of time or age range of the subject to which the specified probability applies. If not specified, the risk applies &quot;over the subject&#39;s lifespan&quot;."/>
        </extension>
        <linkId value="RiskAssessment.prediction.when[x]"/>
        <text value="Timeframe or age range"/>
        <repeats value="true"/>
        <question>
          <linkId value="RiskAssessment.prediction.when[x]._type"/>
          <text value="type"/>
          <type value="choice"/>
          <options>
            <reference value="#vs5"/>
          </options>
          <group>
            <extension url="http://www.healthintersections.com.au/fhir/Profile/metadata#type">
              <valueString value="Period"/>
            </extension>
            <linkId value="RiskAssessment.prediction.when[x]._Period"/>
            <text value="Period"/>
            <question>
              <linkId value="RiskAssessment.prediction.when[x]._Period.low"/>
              <text value="start:"/>
              <type value="dateTime"/>
            </question>
            <question>
              <linkId value="RiskAssessment.prediction.when[x]._Period.end"/>
              <text value="end:"/>
              <type value="dateTime"/>
            </question>
          </group>
          <group>
            <extension url="http://www.healthintersections.com.au/fhir/Profile/metadata#type">
              <valueString value="Range"/>
            </extension>
            <linkId value="RiskAssessment.prediction.when[x]._Range"/>
            <text value="Range"/>
            <question>
              <linkId value="RiskAssessment.prediction.when[x]._Range.low"/>
              <text value="low:"/>
              <type value="decimal"/>
            </question>
            <question>
              <linkId value="RiskAssessment.prediction.when[x]._Range.high"/>
              <text value="high:"/>
              <type value="decimal"/>
            </question>
            <question>
              <linkId value="RiskAssessment.prediction.when[x]._Range.units"/>
              <text value="units:"/>
              <type value="string"/>
            </question>
          </group>
        </question>
      </group>
      <group>
        <extension url="http://hl7.org/fhir/Profile/questionnaire-extensions#flyover">
          <valueString value="Additional information explaining the basis for the prediction."/>
        </extension>
        <extension url="http://www.healthintersections.com.au/fhir/Profile/metadata#type">
          <valueString value="string"/>
        </extension>
        <linkId value="RiskAssessment.prediction.rationale"/>
        <repeats value="true"/>
        <question>
          <linkId value="RiskAssessment.prediction.rationale.value"/>
          <text value="Explanation of prediction"/>
          <type value="string"/>
        </question>
      </group>
    </group>
    <group>
      <extension url="http://hl7.org/fhir/Profile/questionnaire-extensions#flyover">
        <valueString value="A description of the steps that might be taken to reduce the identified risk(s)."/>
      </extension>
      <extension url="http://www.healthintersections.com.au/fhir/Profile/metadata#type">
        <valueString value="string"/>
      </extension>
      <linkId value="RiskAssessment.mitigation"/>
      <repeats value="true"/>
      <question>
        <linkId value="RiskAssessment.mitigation.value"/>
        <text value="How to reduce risk"/>
        <type value="string"/>
      </question>
    </group>
  </group>
</Questionnaire>